# Grace project file
#
@version 50125
@page size 792, 612
@page scroll 5%
@page inout 5%
@link page off
@map font 0 to "Times-Roman", "Times-Roman"
@map font 1 to "Times-Italic", "Times-Italic"
@map font 2 to "Times-Bold", "Times-Bold"
@map font 3 to "Times-BoldItalic", "Times-BoldItalic"
@map font 4 to "Helvetica", "Helvetica"
@map font 5 to "Helvetica-Oblique", "Helvetica-Oblique"
@map font 6 to "Helvetica-Bold", "Helvetica-Bold"
@map font 7 to "Helvetica-BoldOblique", "Helvetica-BoldOblique"
@map font 8 to "Courier", "Courier"
@map font 9 to "Courier-Oblique", "Courier-Oblique"
@map font 10 to "Courier-Bold", "Courier-Bold"
@map font 11 to "Courier-BoldOblique", "Courier-BoldOblique"
@map font 12 to "Symbol", "Symbol"
@map font 13 to "ZapfDingbats", "ZapfDingbats"
@map color 0 to (255, 255, 255), "white"
@map color 1 to (0, 0, 0), "black"
@map color 2 to (255, 0, 0), "red"
@map color 3 to (0, 255, 0), "green"
@map color 4 to (0, 0, 255), "blue"
@map color 5 to (255, 255, 0), "yellow"
@map color 6 to (188, 143, 143), "brown"
@map color 7 to (220, 220, 220), "grey"
@map color 8 to (148, 0, 211), "violet"
@map color 9 to (0, 255, 255), "cyan"
@map color 10 to (255, 0, 255), "magenta"
@map color 11 to (255, 165, 0), "orange"
@map color 12 to (114, 33, 188), "indigo"
@map color 13 to (103, 7, 72), "maroon"
@map color 14 to (64, 224, 208), "turquoise"
@map color 15 to (0, 139, 0), "green4"
@reference date 0
@date wrap off
@date wrap year 1950
@default linewidth 1.0
@default linestyle 1
@default color 1
@default pattern 1
@default font 0
@default char size 1.000000
@default symbol size 1.000000
@default sformat "%.8g"
@background color 0
@page background fill on
@timestamp off
@timestamp 0.03, 0.03
@timestamp color 1
@timestamp rot 0
@timestamp font 0
@timestamp char size 1.000000
@timestamp def "Mon Jun 18 18:26:12 2018"
@r0 off
@link r0 to g0
@r0 type above
@r0 linestyle 1
@r0 linewidth 1.0
@r0 color 1
@r0 line 0, 0, 0, 0
@r1 off
@link r1 to g0
@r1 type above
@r1 linestyle 1
@r1 linewidth 1.0
@r1 color 1
@r1 line 0, 0, 0, 0
@r2 off
@link r2 to g0
@r2 type above
@r2 linestyle 1
@r2 linewidth 1.0
@r2 color 1
@r2 line 0, 0, 0, 0
@r3 off
@link r3 to g0
@r3 type above
@r3 linestyle 1
@r3 linewidth 1.0
@r3 color 1
@r3 line 0, 0, 0, 0
@r4 off
@link r4 to g0
@r4 type above
@r4 linestyle 1
@r4 linewidth 1.0
@r4 color 1
@r4 line 0, 0, 0, 0
@g0 on
@g0 hidden false
@g0 type XY
@g0 stacked false
@g0 bar hgap 0.000000
@g0 fixedpoint off
@g0 fixedpoint type 0
@g0 fixedpoint xy 0.000000, 0.000000
@g0 fixedpoint format general general
@g0 fixedpoint prec 6, 6
@with g0
@    world 0, 0, 6, 2000
@    stack world 0, 0, 0, 0
@    znorm 1
@    view 0.150000, 0.150000, 1.150000, 0.850000
@    title ""
@    title font 4
@    title size 1.500000
@    title color 1
@    subtitle ""
@    subtitle font 4
@    subtitle size 1.000000
@    subtitle color 1
@    xaxes scale Normal
@    yaxes scale Normal
@    xaxes invert off
@    yaxes invert off
@    xaxis  on
@    xaxis  type zero false
@    xaxis  offset 0.000000 , 0.000000
@    xaxis  bar on
@    xaxis  bar color 1
@    xaxis  bar linestyle 1
@    xaxis  bar linewidth 1.0
@    xaxis  label "Displacement (nm)"
@    xaxis  label layout para
@    xaxis  label place auto
@    xaxis  label char size 1.500000
@    xaxis  label font 4
@    xaxis  label color 1
@    xaxis  label place normal
@    xaxis  tick on
@    xaxis  tick major 1
@    xaxis  tick minor ticks 1
@    xaxis  tick default 6
@    xaxis  tick place rounded true
@    xaxis  tick in
@    xaxis  tick major size 1.000000
@    xaxis  tick major color 1
@    xaxis  tick major linewidth 1.0
@    xaxis  tick major linestyle 1
@    xaxis  tick major grid off
@    xaxis  tick minor color 1
@    xaxis  tick minor linewidth 1.0
@    xaxis  tick minor linestyle 1
@    xaxis  tick minor grid off
@    xaxis  tick minor size 0.500000
@    xaxis  ticklabel on
@    xaxis  ticklabel format general
@    xaxis  ticklabel prec 5
@    xaxis  ticklabel formula ""
@    xaxis  ticklabel append ""
@    xaxis  ticklabel prepend ""
@    xaxis  ticklabel angle 0
@    xaxis  ticklabel skip 0
@    xaxis  ticklabel stagger 0
@    xaxis  ticklabel place normal
@    xaxis  ticklabel offset auto
@    xaxis  ticklabel offset 0.000000 , 0.010000
@    xaxis  ticklabel start type auto
@    xaxis  ticklabel start 0.000000
@    xaxis  ticklabel stop type auto
@    xaxis  ticklabel stop 0.000000
@    xaxis  ticklabel char size 1.250000
@    xaxis  ticklabel font 4
@    xaxis  ticklabel color 1
@    xaxis  tick place both
@    xaxis  tick spec type none
@    yaxis  on
@    yaxis  type zero false
@    yaxis  offset 0.000000 , 0.000000
@    yaxis  bar on
@    yaxis  bar color 1
@    yaxis  bar linestyle 1
@    yaxis  bar linewidth 1.0
@    yaxis  label "Pull Force (kJ mol\S-1\N nm\S-1\N)"
@    yaxis  label layout para
@    yaxis  label place auto
@    yaxis  label char size 1.500000
@    yaxis  label font 4
@    yaxis  label color 1
@    yaxis  label place normal
@    yaxis  tick on
@    yaxis  tick major 500
@    yaxis  tick minor ticks 1
@    yaxis  tick default 6
@    yaxis  tick place rounded true
@    yaxis  tick in
@    yaxis  tick major size 1.000000
@    yaxis  tick major color 1
@    yaxis  tick major linewidth 1.0
@    yaxis  tick major linestyle 1
@    yaxis  tick major grid off
@    yaxis  tick minor color 1
@    yaxis  tick minor linewidth 1.0
@    yaxis  tick minor linestyle 1
@    yaxis  tick minor grid off
@    yaxis  tick minor size 0.500000
@    yaxis  ticklabel on
@    yaxis  ticklabel format general
@    yaxis  ticklabel prec 5
@    yaxis  ticklabel formula ""
@    yaxis  ticklabel append ""
@    yaxis  ticklabel prepend ""
@    yaxis  ticklabel angle 0
@    yaxis  ticklabel skip 0
@    yaxis  ticklabel stagger 0
@    yaxis  ticklabel place normal
@    yaxis  ticklabel offset auto
@    yaxis  ticklabel offset 0.000000 , 0.010000
@    yaxis  ticklabel start type auto
@    yaxis  ticklabel start 0.000000
@    yaxis  ticklabel stop type auto
@    yaxis  ticklabel stop 0.000000
@    yaxis  ticklabel char size 1.250000
@    yaxis  ticklabel font 4
@    yaxis  ticklabel color 1
@    yaxis  tick place both
@    yaxis  tick spec type none
@    altxaxis  off
@    altyaxis  off
@    legend on
@    legend loctype view
@    legend 0.85, 0.8
@    legend box color 1
@    legend box pattern 1
@    legend box linewidth 1.0
@    legend box linestyle 1
@    legend box fill color 0
@    legend box fill pattern 1
@    legend font 4
@    legend char size 1.250000
@    legend color 1
@    legend length 4
@    legend vgap 1
@    legend hgap 1
@    legend invert false
@    frame type 0
@    frame linestyle 1
@    frame linewidth 1.0
@    frame color 1
@    frame pattern 1
@    frame background color 0
@    frame background pattern 0
@    s0 hidden false
@    s0 type xy
@    s0 symbol 0
@    s0 symbol size 1.000000
@    s0 symbol color 1
@    s0 symbol pattern 1
@    s0 symbol fill color 1
@    s0 symbol fill pattern 0
@    s0 symbol linewidth 1.0
@    s0 symbol linestyle 1
@    s0 symbol char 65
@    s0 symbol char font 0
@    s0 symbol skip 0
@    s0 line type 1
@    s0 line linestyle 1
@    s0 line linewidth 1.5
@    s0 line color 1
@    s0 line pattern 1
@    s0 baseline type 0
@    s0 baseline off
@    s0 dropline off
@    s0 fill type 0
@    s0 fill rule 0
@    s0 fill color 1
@    s0 fill pattern 1
@    s0 avalue off
@    s0 avalue type 2
@    s0 avalue char size 1.000000
@    s0 avalue font 0
@    s0 avalue color 1
@    s0 avalue rot 0
@    s0 avalue format general
@    s0 avalue prec 3
@    s0 avalue prepend ""
@    s0 avalue append ""
@    s0 avalue offset 0.000000 , 0.000000
@    s0 errorbar on
@    s0 errorbar place both
@    s0 errorbar color 1
@    s0 errorbar pattern 1
@    s0 errorbar size 1.000000
@    s0 errorbar linewidth 1.0
@    s0 errorbar linestyle 1
@    s0 errorbar riser linewidth 1.0
@    s0 errorbar riser linestyle 1
@    s0 errorbar riser clip off
@    s0 errorbar riser clip length 0.100000
@    s0 comment "pull_force_vs_displacement.xvg"
@    s0 legend  ""
@target G0.S0
@type xy
0.503179 -2.35769e-05
0.500994 3.1847
0.496581 8.59752
0.499219 6.95953
0.496396 10.7834
0.49621 11.9688
0.502426 6.7529
0.499325 10.8542
0.501278 9.90087
0.502688 9.49113
0.503246 9.93313
0.499926 14.2532
0.49897 16.2095
0.506602 9.57704
0.504445 12.7342
0.499528 18.6514
0.496099 23.0796
0.500476 19.7028
0.50059 20.5889
0.502958 19.2214
0.498924 24.2551
0.504747 19.4318
0.508729 16.45
0.503189 22.9905
0.504378 22.8005
0.499778 28.4015
0.499765 29.4137
0.494512 35.6675
0.496392 34.7874
0.497556 34.6233
0.493532 39.6468
0.494027 40.1524
0.497694 37.4853
0.489327 46.8518
0.488419 48.76
0.487004 51.1748
0.488717 50.4625
0.495551 44.6281
0.495922 45.2572
0.49571 46.4695
0.492366 50.8128
0.49195 52.2293
0.49508 50.0987
0.501677 44.5024
0.502957 44.2221
0.500133 48.0463
0.498313 50.866
0.495255 54.9239
0.489371 61.8082
0.488748 63.4313
0.492143 61.0362
0.501777 52.4015
0.500385 54.7944
0.502749 53.4299
0.503344 53.8353
0.494558 63.6206
0.493279 65.9004
0.499155 61.0241
0.499769 61.4103
0.500029 62.1503
0.497876 65.3029
0.496571 67.608
0.493335 71.8436
0.499292 66.887
0.506646 60.5326
0.500568 67.6112
0.49412 75.0593
0.498577 71.6023
0.50054 70.6389
0.497426 74.7532
0.503491 69.6877
0.504375 69.8036
0.509593 65.5865
0.509204 66.9747
0.510392 66.7866
0.50788 70.2985
0.510776 68.4026
0.51429 65.8894
0.508225 72.9538
0.506449 75.7297
0.50629 76.8887
0.50428 79.8989
0.508661 76.5183
0.5109 75.2788
0.510711 76.468
0.501897 86.282
0.503341 85.8383
0.504921 85.2581
0.506453 84.7258
0.503035 89.144
0.503882 89.2968
0.51243 81.7485
0.510007 85.1716
0.504094 92.0845
0.507985 89.1939
0.509816 88.3628
0.508638 90.5414
0.511909 88.2705
0.507369 93.8097
0.510376 91.8029
0.508842 94.3366
0.507773 96.4056
0.508503 96.6765
0.502436 103.743
0.506107 101.072
0.506097 102.082
0.509203 99.9761
0.512877 97.3023
0.514422 96.757
0.5064 105.779
0.501926 111.253
0.505373 108.806
0.50841 106.769
0.506163 110.016
0.506108 111.071
0.512034 106.145
0.511661 107.518
0.508776 111.403
0.510789 110.39
0.517344 104.835
0.517352 105.827
0.515955 108.224
0.51403 111.149
0.510337 115.842
0.509187 117.992
0.508047 120.132
0.510617 118.562
0.52204 108.139
0.521865 109.314
0.510886 121.293
0.505354 127.825
0.508918 125.261
0.506854 128.325
0.507717 128.462
0.509617 127.562
0.508363 129.816
0.507075 132.104
0.499491 140.688
0.501704 139.475
0.507779 134.4
0.511038 132.141
0.513157 131.022
0.51675 128.429
0.511569 134.61
0.514325 132.854
0.515761 132.418
0.517542 131.637
0.511593 138.586
0.507104 144.075
0.504126 148.053
0.506183 146.996
0.499274 154.905
0.499523 155.656
0.504696 151.483
0.500961 156.218
0.506341 151.838
0.505993 153.186
0.503129 157.05
0.501111 160.068
0.498668 163.511
0.498746 164.433
0.50092 163.259
0.499144 166.035
0.505574 160.605
0.503633 163.546
0.498013 170.166
0.501573 167.606
0.503454 166.725
0.508143 163.036
0.505139 167.04
0.503489 169.69
0.505283 168.897
0.504372 170.807
0.500764 175.415
0.499655 177.524
0.505335 172.844
0.502809 176.37
0.496831 183.348
0.498399 182.78
0.504486 177.693
0.504268 178.911
0.499165 185.014
0.496618 188.561
0.497654 188.525
0.498891 188.288
0.498999 189.18
0.50003 189.149
0.499526 190.653
0.49947 191.709
0.506699 185.48
0.502873 190.306
0.50568 188.499
0.503502 191.677
0.50024 195.939
0.502256 194.923
0.501248 196.931
0.496862 202.317
0.500935 199.244
0.499267 201.912
0.498315 203.864
0.499498 203.681
0.501651 202.528
0.502083 203.096
0.505833 200.346
0.502538 204.641
0.504248 203.931
0.509147 200.032
0.504762 205.417
0.501093 210.086
0.498847 213.332
0.498037 215.142
0.50268 211.499
0.503573 211.606
0.501828 214.351
0.495092 222.087
0.503661 214.518
0.507127 212.052
0.508072 212.107
0.510055 211.124
0.499506 222.673
0.499511 223.668
0.503331 220.848
0.503074 222.105
0.500405 225.774
0.500308 226.871
0.499869 228.31
0.4975 231.679
0.501539 228.64
0.504432 226.747
0.504127 228.052
0.502678 230.501
0.501452 232.727
0.507017 228.162
0.510199 225.98
0.503741 233.438
0.504241 233.938
0.508335 230.844
0.507374 232.805
0.507456 233.723
0.499158 243.021
0.497482 245.697
0.506878 237.301
0.510492 234.687
0.505311 240.868
0.506281 240.898
0.506956 241.223
0.505002 244.177
0.509086 241.093
0.515792 235.387
0.51447 237.709
0.509435 243.744
0.507963 246.216
0.508133 247.046
0.504907 251.272
0.506602 250.577
0.503802 254.377
0.506491 252.688
0.510679 249.5
0.505791 255.388
0.506089 256.09
0.510647 252.532
0.513268 250.911
0.516512 248.667
0.511708 254.471
0.508515 258.664
0.512585 255.594
0.517073 252.106
0.522468 247.711
0.526798 244.381
0.523047 249.132
0.514382 258.797
0.512955 261.224
0.518561 256.618
0.520034 256.145
0.518503 258.676
0.516634 261.545
0.520186 258.993
0.521732 258.447
0.520976 260.203
0.518506 263.673
0.51665 266.529
0.512016 272.163
0.510452 274.727
0.5102 275.979
0.511179 276
0.505107 283.072
0.510305 278.874
0.513167 277.012
0.51295 278.229
0.51202 280.16
0.514275 278.904
0.515253 278.926
0.52 275.179
0.516092 280.087
0.511926 285.253
0.51563 282.549
0.511861 287.318
0.515021 285.158
0.515344 285.835
0.516849 285.33
0.513582 289.597
0.508527 295.652
0.517082 288.097
0.522771 283.408
0.523951 283.228
0.52069 287.489
0.52316 286.019
0.528015 282.164
0.527555 283.624
0.52372 288.459
0.523542 289.637
0.527163 287.016
0.528053 287.126
0.524963 291.216
0.52513 292.049
0.520036 298.143
0.519616 299.563
0.525906 294.273
0.525196 295.983
0.521815 300.364
0.519561 303.618
0.52206 302.119
0.527999 297.18
0.522516 303.663
0.519543 307.636
0.517127 311.052
0.515051 314.128
0.516841 313.338
0.516081 315.098
0.516472 315.707
0.517995 315.184
0.511943 322.236
0.517506 317.673
0.521248 314.931
0.523442 313.737
0.524847 313.332
0.520221 318.958
0.520724 319.455
0.523262 317.917
0.516427 325.752
0.512847 330.332
0.514469 329.71
0.523269 321.91
0.528425 317.754
0.528008 319.171
0.524278 323.901
0.522259 326.92
0.524764 325.415
0.525523 325.656
0.524666 327.513
0.522338 330.841
0.522808 331.371
0.520496 334.683
0.513691 342.488
0.509304 347.875
0.503513 354.666
0.50166 357.519
0.505708 354.471
0.509042 352.137
0.510736 351.443
0.508301 354.878
0.506611 357.568
0.506623 358.556
0.510994 355.185
0.514523 352.656
0.518855 349.324
0.52115 348.029
0.516569 353.61
0.514689 356.49
0.512026 360.153
0.513701 359.478
0.508528 365.651
0.505639 369.54
0.506903 369.276
0.504941 372.238
0.508911 369.268
0.51245 366.729
0.512162 368.017
0.50985 371.329
0.512467 369.712
0.514481 368.698
0.515628 368.551
0.515862 369.317
0.514918 371.261
0.521738 365.441
0.530055 358.124
0.526486 362.693
0.52383 366.349
0.525381 365.798
0.525057 367.122
0.521632 371.547
0.520872 373.307
0.523909 371.27
0.522175 374.004
0.519168 378.011
0.513583 384.596
0.512839 386.34
0.508788 391.391
0.511053 390.126
0.513486 388.693
0.514909 388.27
0.512244 391.935
0.507999 397.18
0.512465 393.714
0.514525 392.654
0.512422 395.757
0.511344 397.835
0.51067 399.509
0.505732 405.447
0.509267 402.912
0.514685 398.494
0.512267 401.912
0.513053 402.126
0.515492 400.687
0.512178 405.001
0.507166 411.013
0.505057 414.122
0.503419 416.76
0.500178 421.001
0.502964 419.215
0.510999 412.18
0.516055 408.124
0.510996 414.183
0.509575 416.604
0.518112 409.067
0.5175 410.679
0.514025 415.154
0.512763 417.416
0.514562 416.617
0.513174 419.005
0.512965 420.214
0.513942 420.237
0.514027 421.152
0.510745 425.434
0.510279 426.9
0.516884 421.295
0.523064 416.115
0.525943 414.236
0.526978 414.201
0.516903 425.276
0.51911 424.069
0.520204 423.975
0.518083 427.096
0.519116 427.063
0.509309 437.87
0.501878 446.301
0.505074 444.105
0.505673 444.506
0.50861 442.569
0.513738 438.441
0.518717 434.462
0.519997 434.182
0.511827 443.352
0.514052 442.127
0.521544 435.635
0.517939 440.24
0.516751 442.428
0.51879 441.389
0.513292 447.887
0.50804 454.139
0.506793 456.386
0.515993 448.186
0.51842 446.759
0.521724 444.455
0.521877 445.302
0.523771 444.408
0.522966 446.213
0.521079 449.1
0.51986 451.319
0.519423 452.756
0.514274 458.905
0.512505 461.674
0.525656 449.523
0.52779 448.389
0.521918 455.261
0.522791 455.388
0.52128 457.899
0.515852 464.327
0.516667 464.512
0.509659 472.52
0.510853 472.326
0.518028 466.151
0.51761 467.569
0.510505 475.674
0.514772 472.407
0.51542 472.759
0.518874 470.305
0.526369 463.81
0.529234 461.945
0.522594 469.585
0.519473 473.706
0.518105 476.074
0.510043 485.136
0.509303 486.876
0.51222 484.959
0.510785 487.394
0.510504 488.675
0.511476 488.703
0.511582 489.597
0.518793 483.386
0.5169 486.279
0.508342 495.837
0.507456 497.723
0.515353 490.826
0.518406 488.773
0.518144 490.035
0.518986 490.193
0.510542 499.637
0.507068 504.111
0.50701 505.169
0.513283 499.896
0.520007 494.172
0.521222 493.957
0.51369 502.489
0.511646 505.533
0.511898 506.281
0.512806 506.373
0.514585 505.594
0.51393 507.249
0.512084 510.095
0.513974 509.205
0.510625 513.554
0.50631 518.869
0.509102 517.077
0.511873 515.306
0.518436 509.743
0.518375 510.804
0.524114 506.065
0.523157 508.022
0.519684 512.495
0.516095 517.084
0.514922 519.257
0.516009 519.17
0.522931 513.248
0.522483 514.696
0.52118 516.999
0.522754 516.425
0.523875 516.304
0.519716 521.463
0.517638 524.541
0.518752 524.427
0.518036 526.143
0.511862 533.317
0.511458 534.721
0.516835 530.344
0.515865 532.314
0.518121 531.058
0.518117 532.062
0.513348 537.831
0.508935 543.244
0.510577 542.602
0.511687 542.492
0.512878 542.301
0.509434 546.745
0.512688 544.491
0.511929 546.25
0.514598 544.581
0.518098 542.081
0.516845 544.334
0.520817 541.362
0.518463 544.716
0.515346 548.833
0.518573 546.606
0.5197 546.479
0.518653 548.526
0.511097 557.082
0.509629 559.55
0.509787 560.392
0.505295 565.884
0.505031 567.148
0.507768 565.411
0.509033 565.146
0.508139 567.04
0.517264 558.915
0.521617 555.562
0.518183 559.996
0.519781 559.398
0.516557 563.622
0.517885 563.294
0.518235 563.944
0.515645 567.534
0.51007 574.109
0.511591 573.588
0.515226 570.953
0.51496 572.219
0.510153 578.026
0.51174 577.439
0.513317 576.862
0.510195 580.984
0.509806 582.373
0.507573 585.606
0.509166 585.013
0.509258 585.921
0.511743 584.436
0.50949 587.689
0.513522 584.657
0.508363 590.816
0.503559 596.62
0.513453 587.726
0.515461 586.718
0.516461 586.718
0.515392 588.787
0.516302 588.877
0.518443 587.736
0.519702 587.477
0.51199 596.189
0.513105 596.074
0.516307 593.872
0.516943 594.236
0.518732 593.447
0.521204 591.975
0.515173 599.006
0.516902 598.277
0.516002 600.177
0.513651 603.528
0.513321 604.858
0.516413 602.766
0.521327 598.852
0.511956 609.223
0.512969 609.21
0.528205 594.974
0.521543 602.636
0.514667 610.512
0.524277 601.902
0.521638 605.541
0.518891 609.288
0.517092 612.087
0.522436 607.743
0.521669 609.51
0.519354 612.825
0.518544 614.635
0.516499 617.68
0.51778 617.399
0.516565 619.614
0.518068 619.111
0.515268 622.911
0.517073 622.106
0.513528 626.651
0.518686 622.493
0.523627 618.552
0.522029 621.15
0.515444 628.735
0.514089 631.09
0.513215 632.964
0.514761 632.418
0.520557 627.622
0.519969 629.21
0.519526 630.653
0.518231 632.948
0.522429 629.75
0.522803 630.376
0.5218 632.379
0.523676 631.503
0.520658 635.521
0.523205 633.974
0.525711 632.468
0.526128 633.051
0.52445 635.729
0.520629 640.55
0.51323 648.949
0.512467 650.712
0.511531 652.648
0.516228 648.951
0.517201 648.978
0.515861 651.318
0.521554 646.625
0.523595 645.584
0.521891 648.288
0.522233 648.946
0.524365 647.814
0.52385 649.329
0.529852 644.327
0.529705 645.474
0.522485 653.694
0.524118 653.061
0.528655 649.524
0.531041 648.138
0.531675 648.504
0.533601 647.578
0.528015 654.164
0.529963 653.216
0.525049 659.13
0.527581 657.598
0.521188 664.991
0.517742 669.437
0.514067 674.112
0.51553 673.649
0.513336 676.843
0.506934 684.245
0.508218 683.961
0.514082 679.097
0.512201 681.978
0.513086 682.093
0.515046 681.133
0.516252 680.927
0.515804 682.375
0.514886 684.293
0.512151 688.028
0.511634 689.545
0.513951 688.228
0.514046 689.133
0.512595 691.584
0.517774 687.405
0.523822 682.357
0.523107 684.072
0.525877 682.302
0.52249 686.689
0.522513 687.666
0.523914 687.265
0.526038 686.141
0.522251 690.928
0.518336 695.843
0.518875 696.304
0.51804 698.139
0.519769 697.41
0.527766 690.413
0.529935 689.244
0.526795 693.384
0.529076 692.103
0.525992 696.187
0.522654 700.525
0.523463 700.716
0.518836 706.343
0.513852 712.327
0.517043 710.136
0.52413 704.049
0.52561 703.569
0.51874 711.439
0.51403 717.149
0.512425 719.754
0.511919 721.26
0.516219 717.96
0.520107 715.072
0.519482 716.697
0.523156 714.023
0.521522 716.657
0.523452 715.727
0.521777 718.402
0.51988 721.299
0.518949 723.23
0.520857 722.322
0.527006 717.173
0.530216 714.963
0.533075 713.104
0.528519 718.66
0.52528 722.899
0.525258 723.921
0.521146 729.033
0.525578 725.601
0.53012 722.059
0.529547 723.632
0.530779 723.4
0.533629 721.55
0.535545 720.634
0.531498 725.681
0.52818 729.999
0.530947 728.232
0.535431 724.748
0.535248 725.931
0.529266 732.913
0.524835 738.344
0.525318 738.861
0.524845 740.334
0.5318 734.379
0.533025 734.154
0.527804 740.375
0.527166 742.013
0.524017 746.162
0.519729 751.45
0.520187 751.992
0.51845 754.729
0.51091 763.269
0.510496 764.683
0.512043 764.136
0.510701 766.478
0.508883 769.296
0.505538 773.641
0.509931 770.248
0.519042 762.137
0.514536 767.643
0.513352 769.827
0.517982 766.197
0.526208 758.971
0.530288 755.891
0.528156 759.023
0.522395 765.784
0.517981 771.198
0.522079 768.1
0.518421 772.758
0.512652 779.527
0.511513 781.666
0.510919 783.26
0.517053 778.126
0.51549 780.689
0.517176 780.003
0.52269 775.489
0.524439 774.74
0.527455 772.724
0.528176 773.003
0.522877 779.302
0.510472 792.707
0.510996 793.183
0.518301 786.878
0.515461 790.718
0.510769 796.41
0.507867 800.312
0.50942 799.759
0.508533 801.646
0.508508 802.671
0.507281 804.898
0.502395 810.784
0.503201 810.978
0.504393 810.786
0.510263 805.916
0.510178 807.001
0.513981 804.198
0.516157 803.022
0.510842 809.337
0.506138 815.041
0.514351 807.828
0.510402 812.777
0.509313 814.866
0.514455 810.724
0.514564 811.615
0.511319 815.86
0.509032 819.147
0.51388 815.299
0.514237 815.942
0.512093 819.086
0.505634 826.545
0.50325 829.929
0.509234 824.945
0.504783 830.396
0.505549 830.63
0.509814 827.365
0.511776 826.403
0.514893 824.286
0.514102 826.077
0.516436 824.743
0.520284 821.895
0.523313 819.866
0.529908 814.271
0.529561 815.618
0.525019 821.16
0.521683 825.496
0.520887 827.292
0.515681 833.498
0.51462 835.559
0.520481 830.698
0.527128 825.051
0.524921 828.258
0.526516 827.663
0.525654 829.525
0.522972 833.207
0.515088 842.091
0.515776 842.403
0.520133 839.046
0.518227 841.952
0.511856 849.323
0.508371 853.808
0.509427 853.752
0.507275 856.904
0.517886 847.293
0.526396 839.783
0.529553 837.626
0.524725 843.454
0.515789 853.39
0.514444 855.735
0.52052 850.659
0.519795 852.384
0.515174 858.005
0.514042 860.137
0.512399 862.78
0.508817 867.362
0.503702 873.477
0.50859 869.589
0.514412 864.767
0.513666 866.513
0.513228 867.951
0.511777 870.402
0.514505 868.674
0.516175 868.004
0.515113 870.066
0.516334 869.845
0.518788 868.391
0.516865 871.314
0.519293 869.886
0.519242 870.937
0.515076 876.103
0.511987 880.192
0.515607 877.572
0.519127 875.052
0.509706 885.473
0.514248 881.931
0.520081 877.098
0.512827 885.352
0.507269 891.91
0.510928 889.251
0.510665 890.514
0.517055 885.124
0.518681 884.498
0.516139 888.04
0.51045 894.729
0.512898 893.281
0.518238 888.941
0.518511 889.668
0.51586 893.319
0.514682 895.496
0.514245 896.934
0.517444 894.735
0.522046 891.133
0.521199 892.98
0.519044 896.135
0.521995 894.184
0.525535 891.644
0.522491 895.688
0.520945 898.234
0.518811 901.368
0.523973 897.206
0.518861 903.318
0.520384 902.795
0.529676 894.503
0.536348 888.831
0.534391 891.788
0.532744 894.435
0.530667 897.512
0.519248 909.931
0.5201 910.079
0.522318 908.861
0.523944 908.235
0.527804 905.375
0.529037 905.142
0.528503 906.676
0.529145 907.034
0.522452 914.727
0.52357 914.609
0.528217 910.962
0.525625 914.554
0.524153 917.026
0.522433 919.746
0.526088 917.091
0.529121 915.058
0.527699 917.48
0.531513 914.666
0.535573 911.606
0.533973 914.206
0.533453 915.726
0.530244 919.935
0.530578 920.601
0.534392 917.787
0.530545 922.634
0.529773 924.406
0.53565 919.529
0.5367 919.479
0.532601 924.578
0.532133 926.046
0.538 921.179
0.536433 923.746
0.537806 923.373
0.533739 928.44
0.527422 935.757
0.527913 936.266
0.532406 932.773
0.537852 928.327
0.538678 928.501
0.529857 938.322
0.524792 944.387
0.517442 952.737
0.518437 952.742
0.519702 952.477
0.522257 950.922
0.520586 953.593
0.520755 954.424
0.516989 959.19
0.513555 963.624
0.51544 962.739
0.517982 961.197
0.519669 960.51
0.516143 965.036
0.515778 966.401
0.514205 968.974
0.511575 972.604
0.513179 972
0.514814 971.365
0.509122 978.057
0.508653 979.526
0.514159 975.02
0.513813 976.366
0.514251 976.928
0.523494 968.685
0.530479 962.7
0.529903 964.276
0.532441 962.738
0.529438 966.741
0.527492 969.687
0.528389 969.79
0.525421 973.758
0.522676 977.503
0.526895 974.284
0.530339 971.84
0.526951 976.228
0.525928 978.251
0.529534 975.645
0.529666 976.513
0.52769 979.489
0.524604 983.575
0.532227 976.952
0.533372 976.807
0.530379 980.8
0.525924 986.255
0.522556 990.623
0.521599 992.58
0.524598 990.581
0.522197 993.982
0.520188 996.991
0.519931 998.248
0.524824 994.355
0.52286 997.319
0.529482 991.697
0.530025 992.154
0.518724 1004.45
0.520132 1004.05
0.525253 999.926
0.523987 1002.19
0.523713 1003.47
0.522173 1006.01
0.521755 1007.42
0.52443 1005.75
0.522415 1008.76
0.52132 1010.86
0.51909 1014.09
0.514858 1019.32
0.513983 1021.2
0.515208 1020.97
0.5179 1019.28
0.521698 1016.48
0.52533 1013.85
0.525224 1014.95
0.525125 1016.05
0.527038 1015.14
0.523357 1019.82
0.521307 1022.87
0.524843 1020.34
0.530268 1015.91
0.531703 1015.48
0.530449 1017.73
0.524332 1024.85
0.523743 1026.44
0.530428 1020.75
0.536318 1015.86
0.536858 1016.32
0.528909 1025.27
0.526984 1028.19
0.53242 1023.76
0.530526 1026.65
0.527413 1030.77
0.518468 1040.71
0.520872 1039.31
0.529958 1031.22
0.533729 1028.45
0.5254 1037.78
0.528137 1036.04
0.526789 1038.39
0.527397 1038.78
0.528494 1038.68
0.539096 1029.08
0.550912 1018.27
0.550795 1019.38
0.546751 1024.43
0.545931 1026.25
0.545676 1027.5
0.537319 1036.86
0.527245 1047.93
0.527991 1048.19
0.534025 1043.15
0.53545 1042.73
0.541324 1037.85
0.541504 1038.68
0.542998 1038.18
0.546286 1035.89
0.544449 1038.73
0.536244 1047.93
0.531332 1053.85
0.534303 1051.88
0.536247 1050.93
0.535656 1052.52
0.533234 1055.94
0.529678 1060.5
0.52978 1061.4
0.532092 1060.09
0.5378 1055.38
0.535417 1058.76
0.531185 1063.99
0.531275 1064.9
0.528593 1068.59
0.52978 1068.4
0.533064 1066.11
0.535917 1064.26
0.542403 1058.78
0.536754 1065.43
0.531087 1072.09
0.535483 1068.7
0.533558 1071.62
0.528182 1078
0.526875 1080.3
0.53133 1076.85
0.5331 1076.08
0.534318 1075.86
0.537291 1073.89
0.541788 1070.39
0.544507 1068.67
0.541364 1072.81
0.540566 1074.61
0.546902 1069.28
0.545476 1071.7
0.546985 1071.19
0.553395 1065.78
0.551408 1068.77
0.545615 1075.56
0.550517 1071.66
0.555361 1067.82
0.553058 1071.12
0.550555 1074.62
0.543437 1082.74
0.541045 1086.13
0.548323 1079.86
0.551415 1077.76
0.548485 1081.69
0.547184 1084
0.540597 1091.58
0.535408 1097.77
0.543121 1091.06
0.545064 1090.11
0.545347 1090.83
0.542566 1094.61
0.541521 1096.66
0.548491 1090.69
0.549254 1090.92
0.546533 1094.65
0.549928 1092.25
0.552647 1090.53
0.549415 1094.76
0.547637 1097.54
0.549114 1097.07
0.553368 1093.81
0.549553 1098.63
0.551567 1097.61
0.553802 1096.38
0.546698 1104.48
0.544778 1107.4
0.547081 1106.1
0.54949 1104.69
0.546281 1108.9
0.545005 1111.17
0.545149 1112.03
0.539981 1118.2
0.534407 1124.77
0.541998 1118.18
0.55158 1109.6
0.552839 1109.34
0.54726 1115.92
0.541791 1122.39
0.540801 1124.38
0.544798 1121.38
0.550458 1116.72
0.547761 1120.42
0.547325 1121.85
0.549018 1121.16
0.543834 1127.34
0.541246 1130.93
0.545612 1127.57
0.548178 1126
0.549207 1125.97
0.550179 1126
0.55156 1125.62
0.554466 1123.71
0.557226 1121.95
0.560798 1119.38
0.558412 1122.77
0.554008 1128.17
0.550451 1132.73
0.553155 1131.02
0.555431 1129.75
0.549639 1136.54
0.546331 1140.85
0.542184 1146
0.544152 1145.03
0.547097 1143.08
0.552248 1138.93
0.553436 1138.74
0.55312 1140.06
0.556721 1137.46
0.55897 1136.21
0.548297 1147.88
0.546397 1150.78
0.552579 1145.6
0.556052 1143.13
0.555853 1144.33
0.562235 1138.94
0.562203 1139.98
0.558582 1144.6
0.556894 1147.29
0.556891 1148.29
0.550056 1156.12
0.552745 1154.43
0.559016 1149.16
0.55859 1150.59
0.554541 1155.64
0.549224 1161.95
0.550452 1161.73
0.549978 1163.2
0.547714 1166.47
0.552998 1162.18
0.553261 1162.92
0.553979 1163.2
0.549555 1168.62
0.554309 1164.87
0.549539 1170.64
0.546112 1175.07
0.552644 1169.54
0.553117 1170.06
0.550191 1173.99
0.546206 1178.97
0.546813 1179.37
0.545428 1181.75
0.541941 1186.24
0.545223 1183.96
0.550262 1179.92
0.552959 1178.22
0.553786 1178.39
0.552245 1180.93
0.555852 1178.33
0.561299 1173.88
0.554972 1181.21
0.547172 1190.01
0.547106 1191.07
0.553893 1185.29
0.554099 1186.08
0.553659 1187.52
0.559509 1182.67
0.562428 1180.75
0.560755 1183.42
0.561424 1183.76
0.564033 1182.15
0.563601 1183.58
0.558056 1190.12
0.564585 1184.59
0.561108 1189.07
0.557289 1193.89
0.559748 1192.43
0.564919 1188.26
0.564044 1190.13
0.563479 1191.7
0.560838 1195.34
0.564362 1192.82
0.566496 1191.68
0.565337 1193.84
0.557801 1202.38
0.551954 1209.22
0.54887 1213.31
0.55103 1212.15
0.560489 1203.69
0.563909 1201.27
0.559347 1206.83
0.555503 1211.68
0.55812 1210.06
0.55364 1215.54
0.556132 1214.05
0.557806 1213.37
0.560191 1211.99
0.560109 1213.07
0.556768 1217.41
0.551649 1223.53
0.558383 1217.8
0.562006 1215.17
0.560468 1217.71
0.55794 1221.24
0.554526 1225.65
0.557704 1223.47
0.561042 1221.14
0.565564 1217.62
0.563649 1220.53
0.562466 1222.71
0.562247 1223.93
0.557336 1229.84
0.555212 1232.97
0.553218 1235.96
0.555138 1235.04
0.559701 1231.48
0.560363 1231.82
0.554375 1238.8
0.552061 1242.12
0.548981 1246.2
0.548722 1247.46
0.5583 1238.88
0.559697 1238.48
0.560596 1238.58
0.561997 1238.18
0.560601 1240.58
0.560139 1242.04
0.560547 1242.63
0.55729 1246.89
0.554989 1250.19
0.55835 1247.83
0.560339 1246.84
0.560461 1247.72
0.558493 1250.69
0.555136 1255.04
0.555711 1255.47
0.560362 1251.82
0.554034 1259.14
0.554534 1259.64
0.556124 1259.05
0.554522 1261.66
0.555191 1261.99
0.551604 1266.58
0.555706 1263.47
0.560467 1259.71
0.560507 1260.67
0.558684 1263.49
0.560472 1262.71
0.554673 1269.51
0.552848 1272.33
0.553254 1272.92
0.553639 1273.54
0.552961 1275.22
0.548108 1281.07
0.548685 1281.49
0.558022 1273.16
0.559673 1272.51
0.561839 1271.34
0.567777 1266.4
0.57296 1262.22
0.578244 1257.93
0.577263 1259.92
0.579811 1258.37
0.57907 1260.11
0.572843 1267.34
0.57565 1265.53
0.576006 1266.17
0.574922 1268.26
0.575712 1268.47
0.576965 1268.21
0.578746 1267.43
0.579652 1267.53
0.583835 1264.34
0.58197 1267.21
0.579663 1270.52
0.582139 1269.04
0.585572 1266.61
0.582453 1270.73
0.580578 1273.6
0.582935 1272.24
0.586899 1269.28
0.58828 1268.9
0.590101 1268.08
0.590161 1269.02
0.588034 1272.14
0.594306 1266.87
0.591205 1270.97
0.584723 1278.46
0.583294 1280.88
0.581864 1283.32
0.584584 1281.59
0.584784 1282.4
0.583918 1284.26
0.588278 1280.9
0.590152 1280.03
0.582897 1288.28
0.58329 1288.89
0.584472 1288.71
0.577868 1296.31
0.57711 1298.07
0.580327 1295.85
0.579961 1297.22
0.574905 1303.27
0.580564 1298.61
0.590157 1290.02
0.594787 1286.39
0.594564 1287.61
0.59385 1289.33
0.592611 1291.57
0.588548 1296.63
0.589359 1296.82
0.591405 1295.77
0.595504 1292.68
0.59134 1297.84
0.587671 1302.51
0.582566 1308.61
0.586938 1305.24
0.591328 1301.85
0.590265 1303.91
0.587035 1308.14
0.58894 1307.24
0.589342 1307.84
0.587547 1310.63
0.589594 1309.59
0.593446 1306.73
0.594106 1307.07
0.591358 1310.82
0.588857 1314.32
0.591177 1313
0.584958 1320.22
0.578222 1327.96
0.579267 1327.91
0.581173 1327.01
0.575972 1333.21
0.577943 1332.24
0.583625 1327.55
0.582575 1329.6
0.581211 1331.97
0.579373 1334.81
0.5759 1339.28
0.581522 1334.66
0.580001 1337.18
0.578109 1340.07
0.578511 1340.67
0.580289 1339.89
0.580489 1340.69
0.575816 1346.36
0.581901 1341.28
0.588212 1335.97
0.587549 1337.63
0.582086 1344.09
0.579619 1347.56
0.574806 1353.37
0.573436 1355.74
0.576048 1354.13
0.577023 1354.16
0.575838 1356.34
0.580504 1352.67
0.581231 1352.95
0.573209 1361.97
0.571626 1364.55
0.572305 1364.87
0.580234 1357.95
0.573849 1365.33
0.56884 1371.34
0.572926 1368.25
0.570331 1371.85
0.575485 1367.69
0.579819 1364.36
0.579452 1365.73
0.58187 1364.31
0.578422 1368.76
0.57517 1373.01
0.57839 1370.79
0.579194 1370.98
0.581011 1370.17
0.583558 1368.62
0.578987 1374.19
0.586185 1367.99
0.593126 1362.05
0.589341 1366.84
0.592362 1364.82
0.596629 1361.55
0.595664 1363.51
0.593983 1366.2
0.601961 1359.22
0.611469 1350.71
0.614693 1348.49
0.61824 1345.94
0.621325 1343.85
0.625176 1341
0.6234 1343.78
0.621258 1346.92
0.6223 1346.88
0.617938 1352.24
0.62414 1347.04
0.630022 1342.16
0.631453 1341.73
0.627275 1346.9
0.624651 1350.53
0.632233 1343.95
0.637139 1340.04
0.634115 1344.06
0.630572 1348.61
0.631909 1348.27
0.632731 1348.45
0.62986 1352.32
0.630724 1352.45
0.631268 1352.91
0.627475 1357.7
0.624862 1361.32
0.624757 1362.42
0.627428 1360.75
0.62974 1359.44
0.635691 1354.49
0.640373 1350.81
0.634643 1357.54
0.63387 1359.31
0.627055 1367.12
0.620024 1375.16
0.619995 1376.18
0.623296 1373.88
0.628039 1370.14
0.634714 1364.47
0.638236 1361.94
0.641824 1359.35
0.646621 1355.56
0.643537 1359.64
0.641826 1362.35
0.639678 1365.5
0.637266 1368.91
0.638948 1368.23
0.641451 1366.73
0.64578 1363.4
0.647422 1362.76
0.641045 1370.13
0.638377 1373.8
0.648598 1364.58
0.655575 1358.6
0.659011 1356.17
0.656818 1359.36
0.657499 1359.68
0.654914 1363.27
0.650302 1368.88
0.642276 1377.9
0.640968 1380.21
0.643796 1378.38
0.644391 1378.79
0.638558 1385.62
0.639013 1386.17
0.640792 1385.39
0.637428 1389.75
0.638181 1390
0.643763 1385.42
0.640511 1389.67
0.642716 1388.46
0.644728 1387.45
0.647352 1385.83
0.650505 1383.67
0.647954 1387.23
0.650144 1386.04
0.650839 1386.34
0.64471 1393.47
0.648698 1390.48
0.654924 1385.26
0.652336 1388.84
0.647025 1395.15
0.648059 1395.12
0.652677 1391.5
0.648298 1396.88
0.64436 1401.82
0.643738 1403.44
0.644048 1404.13
0.648179 1401
0.656397 1393.78
0.662139 1389.04
0.668412 1383.77
0.664914 1388.26
0.661305 1392.87
0.66163 1393.55
0.662784 1393.39
0.663185 1393.99
0.666139 1392.04
0.668141 1391.04
0.670988 1389.19
0.670748 1390.43
0.673035 1389.14
0.669192 1393.99
0.666053 1398.13
0.666184 1399
0.665127 1401.05
0.664087 1403.09
0.658789 1409.39
0.658527 1410.65
0.655653 1414.53
0.654791 1416.39
0.661522 1410.66
0.664547 1408.63
0.666175 1408
0.667712 1407.47
0.670416 1405.76
0.669779 1407.4
0.665354 1412.83
0.675909 1403.27
0.68262 1397.56
0.677635 1403.54
0.674888 1407.29
0.675709 1407.47
0.681414 1402.77
0.685089 1400.09
0.684786 1401.39
0.680006 1407.17
0.671246 1416.93
0.670209 1418.97
0.674957 1415.22
0.676979 1414.2
0.68252 1409.66
0.679221 1413.96
0.677409 1416.77
0.678447 1416.73
0.677315 1418.86
0.683869 1413.31
0.687248 1410.93
0.685944 1413.24
0.688657 1411.52
0.691897 1409.28
0.690822 1411.36
0.689557 1413.62
0.692978 1411.2
0.696038 1409.14
0.699648 1406.53
0.692531 1414.65
0.692107 1416.07
0.696009 1413.17
0.699282 1410.9
0.70395 1407.23
0.708987 1403.19
0.71047 1402.71
0.707109 1407.07
0.711812 1403.37
0.710451 1405.73
0.705058 1412.12
0.706928 1411.25
0.709474 1409.71
0.716054 1404.13
0.718433 1402.75
0.713096 1409.08
0.714338 1408.84
0.71808 1406.1
0.716232 1408.95
0.716496 1409.68
0.721313 1405.87
0.724125 1404.05
0.72072 1408.46
0.720893 1409.29
0.716908 1414.27
0.71 1422.18
0.705165 1428.01
0.703631 1430.55
0.704043 1431.14
0.70798 1428.2
0.714715 1422.46
0.718007 1420.17
0.722758 1416.42
0.722815 1417.36
0.721857 1419.32
0.724376 1417.8
0.721889 1421.29
0.728207 1415.97
0.735973 1409.21
0.733426 1412.75
0.737722 1409.46
0.737728 1410.45
0.730785 1418.39
0.725204 1424.98
0.725084 1426.1
0.721531 1430.65
0.71394 1439.24
0.714779 1439.4
0.720791 1434.39
0.725993 1430.19
0.734146 1423.03
0.734466 1423.71
0.734719 1424.46
0.737419 1422.76
0.745391 1415.79
0.749495 1412.68
0.749255 1413.92
0.747227 1416.95
0.750236 1414.94
0.749753 1416.43
0.750817 1416.36
0.760398 1407.78
0.76473 1404.45
0.768015 1402.16
0.765639 1405.54
0.762765 1409.41
0.757826 1415.35
0.7582 1415.98
0.76129 1413.89
0.765016 1411.16
0.761864 1415.31
0.762725 1415.45
0.767695 1411.48
0.770527 1409.65
0.766704 1414.47
0.771208 1410.97
0.76921 1413.97
0.772577 1411.6
0.773386 1411.79
0.772194 1413.99
0.773512 1413.67
0.770219 1417.96
0.769905 1419.27
0.773465 1416.71
0.776322 1414.86
0.777208 1414.97
0.779614 1413.56
0.783114 1411.06
0.780576 1414.6
0.778805 1417.37
0.784662 1412.52
0.788326 1409.85
0.794682 1404.5
0.794756 1405.42
0.799531 1401.65
0.79951 1402.67
0.797832 1405.35
0.79775 1406.43
0.800297 1404.88
0.803523 1402.66
0.808353 1398.83
0.814275 1393.9
0.812842 1396.34
0.817436 1392.74
0.823608 1387.57
0.816212 1395.97
0.818895 1394.28
0.822107 1392.07
0.820062 1395.12
0.821307 1394.87
0.82368 1393.5
0.820694 1397.49
0.821944 1397.23
0.821107 1399.07
0.821935 1399.24
0.822153 1400.03
0.827547 1395.63
0.824719 1399.46
0.822861 1402.32
0.82154 1404.64
0.816632 1410.55
0.81694 1411.24
0.811381 1417.8
0.809549 1420.63
0.809163 1422.02
0.805328 1426.85
0.808228 1424.95
0.807656 1426.52
0.80901 1426.17
0.811607 1424.57
0.810999 1426.18
0.808896 1429.28
0.808918 1430.26
0.810465 1429.71
0.815236 1425.94
0.817205 1424.97
0.822769 1420.41
0.828934 1415.24
0.830108 1415.07
0.829304 1416.87
0.826724 1420.45
0.825135 1423.04
0.823067 1426.11
0.826903 1423.28
0.833603 1417.58
0.837542 1414.64
0.838596 1414.58
0.842995 1411.18
0.84383 1411.35
0.844069 1412.11
0.848574 1408.61
0.848823 1409.36
0.85095 1408.23
0.85386 1406.32
0.852589 1408.59
0.85081 1411.37
0.847528 1415.65
0.841812 1422.37
0.847617 1417.56
0.853801 1412.38
0.85545 1411.73
0.8566 1411.58
0.857565 1411.61
0.857326 1412.85
0.855033 1416.15
0.854454 1417.73
0.863103 1410.08
0.863113 1411.07
0.864271 1410.91
0.868524 1407.66
0.866877 1410.3
0.876626 1401.55
0.882539 1396.64
0.873374 1406.8
0.882692 1398.49
0.888787 1393.39
0.888667 1394.51
0.8926 1391.58
0.895088 1390.09
0.893726 1392.45
0.896345 1390.83
0.898116 1390.06
0.894259 1394.92
0.899007 1391.17
0.902787 1388.39
0.903355 1388.82
0.905903 1387.28
0.904219 1389.96
0.906746 1388.43
0.909578 1386.6
0.908115 1389.06
0.912662 1385.52
0.913174 1386
0.915876 1384.3
0.922032 1379.15
0.930427 1371.75
0.933694 1369.48
0.933135 1371.04
0.933284 1371.89
0.937371 1368.81
0.941913 1365.27
0.945436 1362.74
0.942552 1366.63
0.941764 1368.41
0.942193 1368.99
0.940776 1371.4
0.936143 1377.04
0.939601 1374.58
0.939387 1375.79
0.936979 1379.2
0.934247 1382.93
0.936239 1381.94
0.938809 1380.37
0.941248 1378.93
0.948055 1373.12
0.951692 1370.49
0.939812 1383.37
0.93337 1390.81
0.935739 1389.44
0.936984 1389.19
0.94063 1386.55
0.941107 1387.07
0.939811 1389.37
0.943789 1386.39
0.942767 1388.41
0.940217 1391.96
0.93813 1395.05
0.935133 1399.05
0.929754 1405.43
0.925813 1410.37
0.92529 1411.89
0.932696 1405.48
0.94069 1398.49
0.944991 1395.19
0.945973 1395.21
0.950737 1391.44
0.953254 1389.92
0.948594 1395.58
0.94139 1403.79
0.940211 1405.97
0.94764 1399.54
0.956177 1392
0.954839 1394.34
0.953444 1396.74
0.950711 1400.47
0.956538 1395.64
0.958338 1394.84
0.962306 1391.87
0.967652 1387.53
0.96652 1389.66
0.964273 1392.91
0.969269 1388.91
0.979338 1379.84
0.98637 1373.81
0.991549 1369.63
0.989759 1372.42
0.990051 1373.13
0.995343 1368.84
0.99936 1365.82
1.00917 1357.01
1.01543 1351.75
1.01113 1357.04
1.01846 1350.72
1.02781 1342.37
1.02957 1341.61
1.02735 1344.83
1.02468 1348.5
1.02233 1351.85
1.0256 1349.57
1.03465 1341.53
1.04279 1334.39
1.03942 1338.76
1.04037 1338.81
1.04522 1334.96
1.04832 1332.86
1.04955 1332.63
1.0511 1332.08
1.05315 1331.03
1.05772 1327.46
1.0554 1330.77
1.05705 1330.13
1.06259 1325.59
1.06662 1322.56
1.06808 1322.1
1.06621 1324.97
1.07233 1319.85
1.07533 1317.85
1.07633 1317.85
1.07937 1315.81
1.08112 1315.06
1.07503 1322.15
1.07222 1325.96
1.07682 1322.36
1.08212 1318.05
1.08439 1316.78
1.0855 1316.68
1.08414 1319.04
1.08171 1322.47
1.0854 1319.78
1.09143 1314.75
1.10157 1305.61
1.10325 1304.93
1.09985 1309.33
1.09744 1312.74
1.09886 1312.32
1.10297 1309.21
1.10395 1309.23
1.10426 1309.92
1.10249 1312.69
1.106 1310.18
1.11038 1306.8
1.11146 1306.72
1.1153 1303.88
1.12208 1298.1
1.12691 1294.27
1.13205 1290.13
1.13729 1285.89
1.13859 1285.59
1.14148 1283.7
1.14561 1280.57
1.1505 1276.68
1.15218 1275.99
1.1562 1272.98
1.15885 1271.33
1.15449 1276.69
1.15396 1278.21
1.15802 1275.16
1.16338 1270.79
1.16878 1266.4
1.16715 1269.03
1.16954 1267.64
1.16962 1268.55
1.17068 1268.5
1.17929 1260.89
1.18055 1260.63
1.18753 1254.65
1.19248 1250.7
1.1944 1249.78
1.19334 1251.84
1.19415 1252.03
1.2015 1245.67
1.21113 1237.05
1.21054 1238.64
1.20575 1244.43
1.20248 1248.7
1.19874 1253.44
1.21128 1241.9
1.21857 1235.6
1.21766 1237.51
1.21637 1239.81
1.21019 1246.99
1.20985 1248.33
1.21461 1244.57
1.21574 1244.44
1.21824 1242.94
1.21525 1246.93
1.2127 1250.48
1.21305 1251.12
1.21626 1248.92
1.2187 1247.48
1.22007 1247.11
1.22291 1245.27
1.2143 1254.88
1.21135 1258.83
1.22007 1251.11
1.22431 1247.87
1.22684 1246.34
1.22563 1248.55
1.22525 1249.93
1.22499 1251.19
1.23398 1243.2
1.23659 1241.59
1.24069 1238.49
1.24338 1236.8
1.24487 1236.31
1.24581 1236.37
1.24778 1235.4
1.24535 1238.83
1.24814 1237.04
1.25961 1226.57
1.27372 1213.46
1.2725 1215.68
1.26535 1223.82
1.26466 1225.52
1.2679 1223.28
1.27411 1218.07
1.28376 1209.42
1.29093 1203.25
1.29531 1199.87
1.30055 1195.63
1.30749 1189.69
1.30827 1189.91
1.31703 1182.15
1.31986 1180.32
1.31262 1188.56
1.30964 1192.54
1.321 1182.18
1.33335 1170.82
1.33648 1168.7
1.33758 1168.6
1.33858 1168.6
1.33219 1175.99
1.33993 1169.24
1.35663 1153.55
1.36347 1147.71
1.36402 1148.16
1.37333 1139.85
1.3798 1134.38
1.38611 1129.07
1.39115 1125.03
1.3946 1122.58
1.40488 1113.3
1.40728 1111.9
1.4068 1113.38
1.41384 1107.34
1.41654 1105.64
1.41553 1107.65
1.41534 1108.84
1.41652 1108.66
1.42514 1101.04
1.42984 1097.34
1.43335 1094.83
1.43813 1091.05
1.43779 1092.39
1.43936 1091.82
1.44866 1083.52
1.4517 1081.48
1.46157 1072.61
1.46603 1069.15
1.47353 1062.65
1.47875 1058.43
1.47983 1058.35
1.48072 1058.46
1.4804 1059.78
1.48507 1056.11
1.49245 1049.73
1.49281 1050.37
1.49125 1052.93
1.4944 1050.77
1.49902 1047.16
1.50377 1043.41
1.51032 1037.86
1.51655 1032.63
1.52065 1029.52
1.52028 1030.89
1.52108 1031.09
1.53047 1022.71
1.53299 1021.19
1.5363 1018.88
1.54104 1015.14
1.54564 1011.54
1.55089 1007.29
1.55063 1008.55
1.55418 1006
1.56678 994.4
1.5638 998.376
1.56485 998.333
1.57411 990.072
1.57665 988.525
1.57542 990.76
1.57998 987.197
1.58549 982.692
1.58871 980.471
1.59001 980.17
1.59664 974.536
1.60763 964.548
1.6125 960.678
1.61753 956.647
1.62091 954.272
1.6204 955.774
1.6188 958.383
1.62269 955.492
1.62411 955.067
1.62308 957.104
1.62391 957.267
1.62322 958.962
1.63301 950.167
1.64027 943.911
1.64077 944.407
1.65333 932.853
1.66354 923.642
1.67096 917.223
1.67505 914.134
1.68258 907.599
1.69354 897.641
1.69453 897.648
1.69492 898.255
1.69485 899.333
1.69844 896.738
1.70624 889.942
1.71053 886.644
1.71501 883.166
1.71186 887.322
1.70536 894.819
1.70566 895.517
1.7099 892.275
1.71158 891.594
1.71117 893.006
1.71471 890.467
1.72122 884.962
1.73038 876.8
1.73809 870.085
1.73216 877.016
1.72992 880.259
1.73898 872.198
1.73758 874.6
1.74038 872.804
1.74685 867.327
1.74901 866.173
1.74946 866.715
1.7521 865.077
1.75776 860.422
1.76404 855.14
1.76775 852.425
1.77778 843.397
1.79121 830.965
1.79332 829.854
1.78922 834.957
1.78644 838.742
1.78987 836.308
1.79402 833.158
1.79624 831.944
1.79783 831.346
1.80071 829.466
1.80491 826.269
1.80653 825.648
1.81018 823.004
1.81238 821.803
1.81147 823.714
1.81461 821.565
1.81382 823.363
1.81699 821.194
1.82149 817.688
1.82005 820.124
1.81689 824.285
1.82407 818.113
1.83305 810.127
1.82834 815.835
1.8233 821.879
1.8281 818.081
1.83374 813.436
1.84073 807.452
1.84078 808.402
1.83841 811.772
1.83688 814.298
1.84534 806.835
1.85305 800.129
1.84957 804.612
1.84447 810.706
1.84623 809.945
1.85145 805.725
1.85699 801.189
1.86423 794.948
1.86486 795.321
1.86976 791.42
1.86613 796.051
1.85434 808.836
1.8506 813.584
1.85741 807.766
1.86015 806.028
1.85959 807.592
1.86348 804.702
1.87462 794.563
1.88254 787.641
1.88215 789.031
1.88155 790.628
1.88409 789.092
1.88247 791.706
1.88582 789.363
1.89029 785.893
1.88872 788.456
1.88246 795.721
1.89056 788.621
1.8973 782.882
1.89672 784.463
1.89677 785.408
1.90045 782.732
1.90855 775.625
1.9121 773.078
1.90988 776.301
1.91202 775.161
1.92186 766.318
1.92011 769.073
1.92256 767.62
1.93044 760.74
1.93484 757.336
1.93445 758.724
1.93811 756.068
1.9343 760.884
1.93658 759.6
1.95329 743.891
1.96061 737.571
1.95735 741.831
1.95875 741.425
1.96149 739.687
1.96079 741.385
1.9685 734.675
1.9746 729.576
1.97604 729.137
1.9835 722.675
1.99589 711.288
1.99894 709.243
1.99048 718.694
1.99552 714.659
2.00897 702.208
2.01925 692.929
2.02527 687.913
2.03054 683.636
2.02918 685.996
2.02934 686.837
2.03608 681.096
2.04297 675.206
2.05155 667.632
2.05395 666.231
2.05314 668.036
2.04914 673.036
2.05239 670.794
2.05428 669.897
2.05751 667.668
2.06243 663.747
2.05857 668.608
2.05184 676.335
2.04687 682.311
2.04519 684.991
2.04907 682.108
2.04531 686.871
2.04806 685.123
2.05174 682.438
2.0545 680.683
2.05303 683.154
2.05497 682.209
2.0628 675.379
2.05943 679.747
2.05883 681.346
2.0565 684.677
2.06167 680.51
2.06219 680.993
2.06085 683.328
2.06643 678.744
2.07065 675.534
2.06894 678.239
2.07447 673.709
2.0805 668.678
2.07717 673.013
2.08095 670.234
2.09085 661.331
2.09841 654.77
2.10569 648.489
2.11309 642.084
2.11154 644.637
2.11281 644.371
2.11409 644.086
2.11078 648.396
2.11199 648.192
2.11718 643.998
2.12747 634.704
2.13343 629.748
2.13803 626.144
2.13655 628.633
2.14042 625.759
2.14316 624.015
2.14875 619.431
2.15356 615.616
2.15468 615.503
2.15028 620.904
2.1515 620.676
2.15909 614.09
2.16511 609.066
2.17003 605.146
2.17274 603.434
2.17145 605.731
2.16883 609.352
2.16467 614.511
2.16655 613.631
2.16316 618.019
2.16027 621.911
2.15901 624.169
2.15618 627.994
2.15326 631.917
2.15395 632.226
2.15246 634.717
2.14612 642.056
2.14472 644.454
2.14608 644.094
2.14203 649.147
2.14247 649.708
2.14639 646.79
2.14129 652.885
2.13824 656.942
2.13858 657.598
2.15024 646.936
2.15564 642.544
2.15356 645.622
2.15611 644.071
2.15795 643.226
2.15852 643.658
2.15736 645.821
2.15739 646.792
2.15449 650.692
2.15358 652.596
2.14715 660.032
2.1453 662.877
2.14216 667.014
2.1425 667.68
2.14647 664.707
2.15443 657.749
2.16229 650.888
2.163 651.178
2.16136 653.818
2.16187 654.309
2.16943 647.754
2.17434 643.836
2.1781 641.079
2.17781 642.365
2.17891 642.269
2.18102 641.156
2.17522 647.959
2.16936 654.816
2.16874 656.442
2.17451 651.674
2.18128 645.895
2.18214 646.04
2.18113 648.045
2.18208 648.102
2.18551 645.667
2.19111 641.067
2.19362 639.56
2.20111 633.066
2.20215 633.032
2.20433 631.846
2.20958 627.595
2.21107 627.109
2.21017 629.006
2.20967 630.513
2.21724 623.942
2.22611 616.069
2.23152 611.664
2.22918 615
2.2269 618.283
2.23462 611.563
2.24254 604.636
2.24876 599.415
2.25066 598.519
2.24852 601.659
2.24888 602.298
2.24739 604.788
2.25125 601.924
2.25049 603.687
2.25071 604.473
2.26239 593.79
2.26778 589.394
2.27324 584.938
2.2734 585.779
2.27616 584.021
2.27992 581.26
2.2796 582.582
2.27488 588.295
2.27509 589.086
2.27719 587.985
2.28652 579.664
2.29879 568.389
2.30152 566.66
2.30515 564.029
2.31303 557.152
2.3185 552.682
2.32667 545.509
2.33566 537.516
2.34554 528.635
2.34532 529.86
2.3426 533.583
2.3383 538.879
2.33847 539.712
2.33972 539.46
2.34767 532.513
2.35099 530.185
2.35291 529.273
2.35899 524.188
2.35722 526.959
2.36234 522.836
2.36762 518.563
2.37432 512.858
2.37922 508.955
2.38008 509.097
2.3769 513.281
2.37642 514.763
2.38096 511.223
2.37633 516.847
2.37393 520.252
2.38028 514.902
2.38126 514.918
2.37389 523.294
2.36997 528.21
2.37141 527.768
2.37389 526.287
2.3744 526.782
2.37509 527.093
2.36644 536.737
2.35825 545.929
2.36218 542.996
2.36986 536.315
2.37461 532.564
2.37851 529.667
2.38423 524.947
2.38563 524.549
2.3856 525.58
2.38998 522.2
2.39167 521.504
2.39376 520.416
2.39951 515.672
2.40314 513.039
2.41143 505.745
2.41705 501.133
2.42123 497.953
2.42149 498.693
2.41762 503.554
2.41102 511.161
2.41243 510.749
2.41532 508.855
2.41215 513.03
2.41212 514.064
2.41598 511.202
2.4165 511.681
2.42238 506.801
2.42513 505.049
2.4283 502.877
2.43178 500.402
2.43493 498.252
2.4414 492.778
2.45132 483.855
2.46232 473.863
2.46722 469.958
2.47052 467.661
2.47122 467.959
2.4686 471.581
2.4745 466.684
2.47995 462.232
2.47302 470.158
2.46361 480.569
2.45797 487.212
2.45695 489.233
2.46081 486.373
2.46752 480.659
2.46589 483.288
2.4722 477.977
2.47943 471.746
2.48341 468.766
2.49013 463.052
2.50425 449.927
2.51341 441.766
2.51314 443.04
2.51515 442.029
2.5187 439.476
2.52613 433.053
2.53837 421.805
2.54471 416.467
2.55127 410.91
2.56176 401.422
2.56662 397.563
2.5647 400.477
2.56256 403.618
2.57469 392.486
2.58488 383.294
2.58496 384.218
2.58781 382.368
2.59016 381.023
2.58666 385.519
2.58257 390.605
2.59061 383.57
2.59884 376.334
2.59533 380.847
2.59246 384.723
2.59963 378.546
2.60128 377.902
2.60027 379.906
2.59996 381.215
2.60268 379.494
2.60382 379.361
2.60775 376.427
2.61296 372.221
2.61406 372.119
2.61112 376.057
2.60985 378.332
2.61173 377.454
2.60907 381.112
2.60437 386.811
2.60115 391.024
2.60608 387.094
2.6076 386.579
2.60168 393.499
2.60405 392.126
2.60825 388.934
2.60772 390.461
2.61032 388.862
2.60888 391.297
2.60676 394.417
2.6095 392.682
2.618 385.182
2.62714 377.04
2.62999 375.191
2.63359 372.586
2.64008 367.096
2.64699 361.192
2.66327 345.911
2.66525 344.925
2.67163 339.545
2.67037 341.804
2.67605 337.134
2.6788 335.377
2.68337 331.805
2.69138 324.804
2.69352 323.658
2.69844 319.743
2.70558 313.595
2.7102 309.982
2.71305 308.126
2.71665 305.529
2.72426 298.914
2.72417 300.011
2.72572 299.463
2.73011 296.071
2.73351 293.668
2.7375 290.684
2.74658 282.596
2.74964 280.535
2.74422 286.956
2.74222 289.957
2.74539 287.794
2.74576 288.417
2.74621 288.969
2.74875 287.434
2.75662 280.561
2.76366 274.524
2.76385 275.33
2.76156 278.622
2.75112 290.062
2.74543 296.751
2.74598 297.199
2.74585 298.333
2.74207 303.114
2.74108 305.095
2.74429 302.892
2.74494 303.236
2.73969 309.493
2.7392 310.982
2.74342 307.762
2.74178 310.401
2.74121 311.97
2.74327 310.908
2.73705 318.13
2.73637 319.812
2.72812 329.062
2.72633 331.844
2.72686 332.322
2.72843 331.752
2.73331 327.87
2.74233 319.847
2.7374 325.78
2.73492 329.261
2.73777 327.409
2.74303 323.15
2.74357 323.614
2.73928 328.895
2.7311 338.076
2.72952 340.663
2.7329 338.275
2.73449 337.689
2.72998 343.202
2.72459 349.588
2.72828 346.904
2.73563 340.55
2.73453 342.648
2.73204 346.142
2.7332 345.984
2.73428 345.894
2.73687 344.307
2.73799 344.184
2.73881 344.368
2.73981 344.368
2.73573 349.449
2.73665 349.529
2.74771 339.465
2.75975 328.424
2.75853 330.648
2.75349 336.685
2.74637 344.808
2.73993 352.246
2.73611 357.067
2.73215 362.031
2.73638 358.798
2.73835 357.831
2.73516 362.021
2.73226 365.916
2.73182 367.356
2.73127 368.906
2.7288 372.382
2.72882 373.359
2.73055 372.629
2.73276 371.416
2.74098 364.196
2.7484 357.78
2.7493 357.88
2.74939 358.792
2.75418 355.003
2.7616 348.583
2.76896 342.222
2.77117 341.006
2.76805 345.134
2.76694 347.235
2.76753 347.65
2.77406 342.123
2.78142 335.758
2.78037 337.812
2.77508 344.103
2.77226 347.92
2.77311 348.067
2.77014 352.037
2.76852 354.662
2.77226 351.922
2.78116 344.021
2.78526 340.92
2.78427 342.908
2.78765 340.526
2.79389 335.29
2.79014 340.039
2.79281 338.367
2.79211 340.067
2.78312 350.055
2.78031 353.867
2.78256 352.615
2.78116 355.022
2.78282 354.362
2.78549 352.685
2.78639 352.787
2.78698 353.203
2.79126 349.92
2.79185 350.331
2.79114 352.035
2.78935 354.825
2.79128 353.901
2.79155 354.631
2.78829 358.89
2.7894 358.784
2.79328 355.903
2.79895 351.227
2.80214 349.041
2.8029 349.278
2.80432 348.86
2.80731 346.866
2.81085 344.325
2.8119 344.279
2.80709 350.093
2.8033 354.883
2.80342 355.757
2.80072 359.46
2.80777 353.411
2.81381 348.367
2.81481 348.369
2.80568 358.499
2.79874 366.439
2.80113 365.048
2.79791 369.273
2.80445 363.726
2.8128 356.377
2.81245 357.732
2.81456 356.622
2.81701 355.174
2.8191 354.081
2.81681 357.37
2.82534 349.838
2.83698 339.197
2.83952 337.661
2.84097 337.208
2.84762 331.554
2.84806 332.119
2.84397 337.206
2.84283 339.344
2.84678 336.397
2.84474 339.439
2.84333 341.846
2.84096 345.218
2.8371 350.082
2.83641 351.773
2.84238 346.796
2.83975 350.428
2.8361 355.074
2.83964 352.536
2.84698 346.196
2.85217 342.013
2.85837 336.806
2.85484 341.341
2.84648 350.694
2.84461 353.567
2.84681 352.37
2.85094 349.234
2.85078 350.4
2.86012 342.055
2.86884 334.343
2.87072 333.458
2.86918 336.002
2.87058 335.601
2.87499 332.189
2.88226 325.916
2.89267 316.507
2.90204 308.141
2.90233 308.845
2.90593 306.248
2.90335 309.827
2.9095 304.684
2.91199 303.188
2.91254 303.642
2.92135 295.828
2.93288 285.294
2.93935 279.829
2.93849 281.69
2.93375 287.429
2.92762 294.556
2.92484 298.334
2.92552 298.663
2.93099 294.186
2.9286 297.577
2.92994 297.238
2.9352 292.982
2.93692 292.26
2.9351 295.076
2.93497 296.209
2.93503 297.151
2.94217 291.01
2.94437 289.807
2.93956 295.615
2.9366 299.576
2.94014 297.043
2.94188 296.298
2.9373 301.881
2.93838 301.802
2.94072 300.454
2.93599 306.192
2.93155 311.633
2.94151 302.666
2.93944 305.736
2.93993 306.252
2.93841 308.771
2.93175 316.43
2.93277 316.41
2.93482 315.355
2.93772 313.455
2.94025 311.926
2.94609 307.085
2.94674 307.438
2.94167 313.506
2.9347 321.483
2.93019 326.992
2.93359 324.589
2.93519 323.991
2.93376 326.42
2.93262 328.559
2.93605 326.13
2.93944 323.743
2.94377 320.411
2.9469 318.277
2.94739 318.793
2.94559 321.591
2.94374 324.438
2.94821 320.965
2.95102 319.157
2.94986 321.32
2.95275 319.429
2.95366 319.52
2.95108 323.095
2.95664 318.539
2.9692 306.977
2.97186 305.324
2.96868 309.5
2.9714 307.774
2.97171 308.469
2.97148 309.703
2.97529 306.888
2.97709 306.086
2.98079 303.385
2.98004 305.136
2.97533 310.846
2.98166 305.517
2.98418 303.996
2.97766 311.518
2.98102 309.156
2.98272 308.458
2.98406 308.118
2.98718 305.995
2.9827 311.475
2.97592 319.257
2.97505 321.127
2.97408 323.096
2.97721 320.966
2.97938 319.796
2.97962 320.555
2.97815 323.026
2.98336 318.816
2.9877 315.481
2.98635 317.826
2.9883 316.877
2.99462 311.557
3.00046 306.715
2.99735 310.83
2.99279 316.391
2.98726 322.919
2.98839 322.793
2.99422 317.962
2.99467 318.507
2.99636 317.822
2.99735 317.826
2.99839 317.794
2.99563 321.552
2.99816 320.015
3.00014 319.04
2.99883 321.348
2.99717 324.006
2.99856 323.617
3.00001 323.173
2.99881 325.368
2.99784 327.337
2.9912 334.982
2.98483 342.35
2.98925 338.931
2.99373 335.453
2.99711 333.068
3.00197 329.212
3.00759 324.587
3.00803 325.15
3.0082 325.977
3.01364 321.539
3.02148 314.7
3.0295 307.678
3.03151 306.672
3.02301 316.174
3.00985 330.329
2.99981 341.367
3.00211 340.074
3.00319 339.993
2.99735 346.83
2.99805 347.132
3.00284 343.335
3.00682 340.362
3.00748 340.698
3.00795 341.234
3.00982 340.361
3.00801 343.165
3.01126 340.92
3.01124 341.944
3.01384 340.34
3.01176 343.422
3.0092 346.979
3.00226 354.922
2.998 360.183
3.00009 359.085
3.00377 356.407
3.00938 351.802
3.01149 350.691
3.01594 347.236
3.01689 347.294
3.01442 350.761
3.01727 348.905
3.01584 351.334
3.01022 357.956
3.01095 358.231
3.01248 357.703
3.01591 355.268
3.01717 355.013
3.02183 351.352
3.02733 346.849
3.0298 345.378
3.03475 341.433
3.03655 340.624
3.0373 340.875
3.03398 345.2
3.0338 346.382
3.037 344.174
3.03901 343.172
3.04192 341.255
3.04322 340.959
3.05866 326.514
3.06443 321.747
3.06547 321.713
3.06123 326.951
3.06694 322.237
3.07032 319.864
3.06945 321.733
3.06716 325.016
3.06905 324.131
3.07169 322.492
3.06917 326.013
3.06677 329.413
3.07254 324.637
3.08047 317.706
3.08576 313.422
3.09279 307.393
3.09614 305.044
3.10262 299.557
3.10487 298.313
3.09942 304.763
3.09671 308.465
3.09502 311.154
3.09275 314.429
3.09096 317.217
3.08545 323.726
3.08561 324.573
3.09009 321.094
3.09323 318.95
3.09704 316.136
3.10355 310.627
3.1116 303.583
3.11063 305.546
3.11298 304.203
3.1133 304.884
3.11054 308.639
3.11229 307.887
3.11554 305.641
3.12093 301.25
3.11431 308.873
3.11282 311.36
3.12314 302.042
3.12326 302.919
3.11648 310.696
3.119 309.177
3.12502 304.155
3.13126 298.92
3.13622 294.96
3.13803 294.147
3.12883 304.35
3.12644 307.738
3.12508 310.097
3.12009 316.093
3.11531 321.864
3.11788 320.297
3.1205 318.675
3.12096 319.216
3.11973 321.447
3.12456 317.618
3.12811 315.069
3.13263 311.547
3.1405 304.68
3.14135 304.832
3.14171 305.469
3.14704 301.14
3.15785 291.325
3.16238 287.803
3.17563 275.549
3.18039 271.79
3.17987 273.305
3.18175 272.43
3.1842 270.976
3.17861 277.573
3.17964 277.544
3.18571 272.465
3.19101 268.17
3.18934 270.843
3.18314 278.041
3.17999 282.186
3.18309 280.084
3.1833 280.883
3.18071 284.471
3.18371 282.47
3.18765 279.529
3.1917 276.483
3.19415 275.029
3.19801 272.165
3.19838 272.797
3.19835 273.832
3.197 276.174
3.19631 277.867
3.20049 274.687
3.20518 270.998
3.20447 272.706
3.20817 270.011
3.21275 266.433
3.21461 265.567
3.21216 269.019
3.20991 272.264
3.21154 271.641
3.20928 274.899
3.20766 277.52
3.20482 281.361
3.20606 281.118
3.20954 278.642
3.21225 276.931
3.21377 276.406
3.21365 277.529
3.20648 285.695
3.21138 281.803
3.21282 281.357
3.21382 281.36
3.21889 277.291
3.22477 272.414
3.22928 268.896
3.22932 269.861
3.22941 270.766
3.2349 266.283
3.23718 265.002
3.23373 269.447
3.23164 272.536
3.22813 277.047
3.22343 282.751
3.21883 288.352
3.21765 290.529
3.21329 295.891
3.21455 295.629
3.22071 290.471
3.22249 289.691
3.22322 289.96
3.21939 294.786
3.21416 301.017
3.21201 304.168
3.20647 310.711
3.20415 314.034
3.20473 314.452
3.20318 317
3.20335 317.83
3.20234 319.841
3.2091 314.079
3.21721 306.966
3.21445 310.724
3.21435 311.825
3.21397 313.214
3.21551 312.668
3.21291 316.27
3.20985 320.33
3.21137 319.811
3.21044 321.74
3.21455 318.631
3.21239 321.786
3.20604 329.136
3.2025 333.682
3.19916 338.023
3.19714 341.044
3.19295 346.228
3.18916 351.022
3.18846 352.714
3.18711 355.068
3.18393 359.25
3.18631 357.867
3.19642 348.759
3.20549 340.689
3.20569 341.492
3.21281 335.37
3.21175 337.428
3.20861 341.572
3.21524 335.937
3.22097 331.21
3.22912 324.059
3.22842 325.763
3.22433 330.847
3.22603 330.149
3.22132 335.859
3.22135 336.831
3.22664 332.54
3.22412 336.062
3.22134 339.842
3.221 341.176
3.22604 337.142
3.2252 338.978
3.23183 333.345
3.23321 332.971
3.23479 332.388
3.23638 331.8
3.24673 322.448
3.2543 315.881
3.26187 309.304
3.2627 309.483
3.26318 309.995
3.26507 309.106
3.26873 306.447
3.27487 301.308
3.28027 296.906
3.28315 295.028
3.28449 294.691
3.28936 290.822
3.28819 292.989
3.28021 301.973
3.27339 309.794
3.27026 313.919
3.26622 318.961
3.27044 315.742
3.28182 305.354
3.28404 304.138
3.27741 311.768
3.27827 311.913
3.27986 311.318
3.27498 317.198
3.27319 319.991
3.27693 317.247
3.28083 314.35
3.27561 320.565
3.27351 323.667
3.2744 323.775
3.27471 324.469
3.27417 326.011
3.27459 326.591
3.27536 326.819
3.27675 326.427
3.27311 331.07
3.27304 332.14
3.2804 325.784
3.28651 320.672
3.28294 325.234
3.28278 326.4
3.29153 318.648
3.29369 317.493
3.30039 311.791
3.30579 307.385
3.30395 310.23
3.30474 310.436
3.30921 306.969
3.31978 297.404
3.32214 296.041
3.31761 301.571
3.31888 301.304
3.32225 298.925
3.32796 294.219
3.33678 286.394
3.33916 285.017
3.34443 280.752
3.34907 277.11
3.34642 280.761
3.34072 287.464
3.34464 284.54
3.34746 282.719
3.35074 280.441
3.35142 280.759
3.35383 279.351
3.36511 269.066
3.37304 262.138
3.37179 264.393
3.37116 266.017
3.37701 261.166
3.37027 268.906
3.3733 266.877
3.37835 262.825
3.37847 263.705
3.38031 262.867
3.37908 265.095
3.38499 260.185
3.38893 257.248
3.39099 256.184
3.39336 254.819
3.39455 254.627
3.3926 257.578
3.39335 257.829
3.39513 257.048
3.39928 253.9
3.40293 251.247
3.41029 244.889
3.41237 243.806
3.40944 247.735
3.41215 246.028
3.41016 249.02
3.40899 251.185
3.40839 252.785
3.41594 246.239
3.41961 243.569
3.4214 242.775
3.42213 243.044
3.42396 242.214
3.42659 240.592
3.43468 233.496
3.44018 228.999
3.43998 230.196
3.43739 233.789
3.4325 239.682
3.42651 246.669
3.42554 248.635
3.43035 244.83
3.43232 243.857
3.42797 249.213
3.42553 252.653
3.42261 256.566
3.42209 258.09
3.42129 259.887
3.42455 257.63
3.43498 248.196
3.43647 247.711
3.43331 251.868
3.43724 248.941
3.44263 244.552
3.4356 252.574
3.42647 262.71
3.42766 262.514
3.43608 255.103
3.4408 251.378
3.43711 256.072
3.4338 260.383
3.43327 261.904
3.43408 262.1
3.43799 259.191
3.44333 254.854
3.44804 251.139
3.45388 246.301
3.4621 239.08
3.46139 240.788
3.45845 244.726
3.45932 244.854
3.4594 245.784
3.45939 246.788
3.4648 242.374
3.46776 240.42
3.47047 238.705
3.4716 238.582
3.46818 243
3.46201 250.173
3.46012 253.056
3.46091 253.273
3.47058 244.601
3.47631 239.872
3.47695 240.225
3.47841 239.773
3.47646 242.721
3.47513 245.044
3.47666 244.519
3.47555 246.628
3.47276 250.42
3.47253 251.652
3.4755 249.684
3.4808 245.382
3.48025 246.929
3.48165 246.533
3.48441 244.767
3.48489 245.286
3.48662 244.556
3.48684 245.335
3.49105 242.132
3.49711 237.07
3.5001 235.082
3.50068 235.503
3.49672 240.458
3.49684 241.344
3.50288 236.294
3.50401 236.171
3.50538 235.799
3.50586 236.318
3.50565 237.531
3.50684 237.334
3.50877 236.408
3.50964 236.544
3.515 232.183
3.52129 226.885
3.52625 222.932
3.53421 215.97
3.53607 215.111
3.53081 221.366
3.52715 226.032
3.52497 229.209
3.51554 239.644
3.50824 247.943
3.50473 252.454
3.50337 254.805
3.50315 256.029
3.50481 255.368
3.50809 253.086
3.51269 249.49
3.5147 248.478
3.51856 245.62
3.51922 245.958
3.52275 243.43
3.52301 244.164
3.52749 240.686
3.53441 234.764
3.53689 233.294
3.5344 236.781
3.52886 243.315
3.52532 247.861
3.52427 249.906
3.53119 243.989
3.53392 242.261
3.53715 240.026
3.54084 237.337
3.53789 241.287
3.52775 252.432
3.51731 263.869
3.51449 267.692
3.51608 267.098
3.51963 264.549
3.52213 263.048
3.52412 262.057
3.52734 259.838
3.52724 260.944
3.52909 260.085
3.53015 260.028
3.52531 265.867
3.52095 271.232
3.5192 273.981
3.52272 271.457
3.52743 267.75
3.53857 257.605
3.53874 258.444
3.53507 263.113
3.5363 262.879
3.54358 256.598
3.54955 251.63
3.54629 255.892
3.54761 255.572
3.55337 250.804
3.55362 251.556
3.55013 256.052
3.55048 256.698
3.55378 254.394
3.55759 251.591
3.5652 244.977
3.5783 232.878
3.58448 227.699
3.5882 224.982
3.58816 226.021
3.58819 226.992
3.58627 229.904
3.58724 229.941
3.58513 233.045
3.58616 233.018
3.59015 230.031
3.59543 225.749
3.59812 224.058
3.59789 225.29
3.59548 228.704
3.59238 232.795
3.58941 236.769
3.59034 236.84
3.60028 227.897
3.60284 226.339
3.60015 230.03
3.59532 235.86
3.59086 241.321
3.5869 246.276
3.58445 249.728
3.5893 245.881
3.59982 236.358
3.59911 238.066
3.59592 242.254
3.58972 249.46
3.58993 250.246
3.59482 246.357
3.59273 249.452
3.59073 252.452
3.59408 250.099
3.59229 252.894
3.59401 252.171
3.5925 254.678
3.5892 258.981
3.58745 261.726
3.58953 260.65
3.58906 262.119
3.58808 264.1
3.58514 268.043
3.58263 271.544
3.57561 279.568
3.57239 283.79
3.57397 283.213
3.57157 286.605
3.5715 287.684
3.57503 285.151
3.57972 281.454
3.57919 282.992
3.58788 275.297
3.59407 270.111
3.59518 270.002
3.59368 272.504
3.58784 279.34
3.58897 279.208
3.59346 275.724
3.59468 275.494
3.59532 275.863
3.60923 262.947
3.62416 249.019
3.63263 241.544
3.63707 238.108
3.6386 237.582
3.64073 236.444
3.64205 236.131
3.6412 237.982
3.64441 235.771
3.64317 238.009
3.64521 236.97
3.65089 232.292
3.6565 227.675
3.65543 229.749
3.65425 231.926
3.65364 233.535
3.6552 232.978
3.66297 226.207
3.66968 220.5
3.66912 222.064
3.66224 229.943
3.65806 235.115
3.65373 240.447
3.6599 235.281
3.66537 230.81
3.65621 240.971
3.64891 249.269
3.64626 252.917
3.65459 245.585
3.65225 248.933
3.64788 254.301
3.65827 244.912
3.66744 236.743
3.66854 236.64
3.66881 237.367
3.67251 234.668
3.67526 232.917
3.68004 229.143
3.68489 225.291
3.68849 222.693
3.69158 220.604
3.68825 224.926
3.68917 225.014
3.69257 222.606
3.6915 224.681
3.68586 231.321
3.68323 234.947
3.68634 232.838
3.68937 230.813
3.68891 232.271
3.69244 229.735
3.69138 231.796
3.68095 243.232
3.6787 246.483
3.68014 246.037
3.679 248.178
3.67435 253.832
3.67079 258.388
3.66976 260.418
3.67465 256.528
3.67739 254.785
3.67825 254.93
3.68132 252.857
3.68496 250.22
3.69042 245.759
3.69214 245.037
3.69298 245.197
3.6886 250.578
3.68108 259.099
3.68299 258.191
3.68715 255.033
3.69165 251.525
3.69658 247.6
3.70291 242.266
3.70344 242.735
3.70012 247.062
3.70351 244.667
3.71115 238.024
3.71664 233.54
3.72436 226.823
3.7281 224.082
3.73209 221.085
3.73968 214.498
3.74898 206.198
3.74945 206.724
3.75145 205.729
3.75221 205.972
3.75121 207.973
3.75125 208.933
3.75081 210.371
3.75134 210.839
3.75401 209.166
3.75973 204.449
3.76245 202.73
3.76341 202.773
3.76274 204.439
3.76893 199.252
3.77669 192.487
3.78243 187.744
3.78693 184.246
3.78485 187.329
3.77889 194.29
3.78259 191.587
3.78995 185.231
3.78613 190.05
3.7752 201.982
3.77239 205.791
3.77056 208.621
3.77207 208.106
3.78005 201.13
3.78092 201.263
3.78341 199.764
3.79016 194.019
3.7912 193.981
3.7845 201.683
3.78004 207.136
3.77874 209.442
3.77309 216.09
3.77044 219.736
3.77008 221.097
3.76705 225.129
3.76291 230.266
3.76292 231.257
3.76535 229.832
3.76359 232.591
3.75801 239.167
3.75385 244.327
3.75851 240.665
3.76246 237.716
3.7636 237.576
3.76461 237.572
3.76268 240.498
3.75605 248.129
3.75161 253.571
3.74833 257.85
3.74134 265.836
3.74552 262.657
3.75159 257.584
3.75387 256.308
3.75472 256.46
3.74909 263.093
3.74728 265.901
3.74547 268.714
3.74324 271.943
3.73947 276.706
3.73536 281.814
3.73375 284.434
3.7262 292.978
3.72363 296.552
3.72366 297.517
3.72726 294.923
3.72599 297.186
3.72404 300.135
3.71188 313.297
3.71244 313.741
3.71548 311.704
3.71882 309.356
3.72483 304.35
3.72623 303.949
3.72706 304.123
3.7273 304.881
3.73124 301.941
3.73969 294.487
3.73956 295.619
3.73275 303.434
3.73788 299.303
3.74575 292.432
3.75157 287.605
3.75738 282.796
3.75446 286.718
3.76206 280.119
3.76877 274.405
3.77781 266.373
3.78529 259.89
3.78556 260.618
3.77755 269.629
3.77387 274.313
3.77467 274.51
3.77566 274.518
3.77317 278.01
3.77275 279.432
3.77657 276.613
3.77943 274.751
3.78137 273.814
3.78315 273.03
3.7804 276.781
3.78244 275.742
3.78674 272.442
3.79044 269.736
3.79538 265.801
3.79628 265.897
3.80108 262.099
3.80852 255.657
3.80681 258.371
3.80193 264.246
3.79754 269.643
3.79733 270.847
3.79772 271.458
3.79518 274.996
3.7985 272.676
3.80388 268.295
3.8042 268.974
3.80186 272.314
3.79719 277.99
3.79194 284.24
3.7865 290.677
3.79027 287.904
3.7908 288.383
3.7927 287.483
3.80118 279.994
3.80233 279.848
3.79916 284.021
3.79844 285.742
3.80043 284.746
3.80196 284.221
3.80397 283.209
3.80619 281.984
3.812 277.181
3.81845 271.734
3.81773 273.449
3.8196 272.577
3.82281 270.364
3.8222 271.977
3.83291 262.272
3.8419 254.281
3.84227 254.913
3.84686 251.314
3.85176 247.42
3.85045 249.732
3.85329 247.892
3.85605 246.13
3.85716 246.024
3.85894 245.235
3.86064 244.542
3.86666 239.524
3.87176 235.421
3.87558 232.595
3.879 230.184
3.88079 229.391
3.88323 227.947
3.87998 232.197
3.88235 230.826
3.88884 225.342
3.89125 223.932
3.88712 229.058
3.8869 230.281
3.88743 230.754
3.88142 237.757
3.87899 241.192
3.87503 246.153
3.87091 251.267
3.87116 252.021
3.87287 251.31
3.87226 252.921
3.87373 252.453
3.87667 250.506
3.88337 244.813
3.88682 242.361
3.88836 241.823
3.90022 230.964
3.9065 225.676
3.91342 219.755
3.91796 216.221
3.91355 221.63
3.91109 225.09
3.90675 230.426
3.89906 239.119
3.8974 241.778
3.8974 242.78
3.89762 243.56
3.8968 245.379
3.89312 250.06
3.89239 251.793
3.89086 254.322
3.88428 261.903
3.87698 270.196
3.87286 275.323
3.86874 280.438
3.86832 281.857
3.86915 282.031
3.86455 287.631
3.86572 287.455
3.86774 286.442
3.87114 284.037
3.8747 281.479
3.87665 280.524
3.87323 284.953
3.8724 286.778
3.87911 281.072
3.88321 277.968
3.88409 278.09
3.8826 280.582
3.88391 280.267
3.87973 285.444
3.87713 289.052
3.87579 291.392
3.87297 295.21
3.87532 293.856
3.87897 291.208
3.88848 282.7
3.89699 275.184
3.9045 268.683
3.90484 269.343
3.90349 271.685
3.90716 269.018
3.90528 271.902
3.90443 273.749
3.90819 270.988
3.90856 271.617
3.904 277.177
3.90028 281.903
3.90065 282.533
3.90489 279.288
3.90638 278.802
3.9038 282.375
3.9038 283.376
3.9088 279.376
3.91812 271.06
3.91959 270.59
3.91945 271.727
3.92093 271.25
3.91861 274.571
3.91833 275.852
3.92328 271.896
3.92431 271.867
3.92586 271.321
3.92886 269.321
3.93176 267.415
3.92329 276.888
3.92054 280.64
3.92848 273.698
3.93134 271.842
3.9337 270.482
3.92957 275.611
3.92686 279.323
3.93271 274.468
3.93392 274.262
3.93107 278.105
3.93148 278.702
3.93278 278.4
3.93565 276.532
3.9409 272.275
3.93751 276.673
3.93273 282.453
3.93398 282.197
3.94026 276.921
3.93673 281.445
3.93902 280.154
3.94672 273.462
3.95185 269.333
3.94729 274.887
3.94651 276.673
3.94536 278.823
3.94223 282.953
3.94323 282.952
3.94473 282.453
3.94707 281.112
3.95027 278.908
3.94599 284.192
3.94333 287.848
3.9444 287.783
3.94864 284.538
3.94443 289.745
3.94257 292.614
3.94719 288.99
3.95374 283.438
3.96063 277.553
3.97003 269.147
3.97018 270.003
3.96697 274.207
3.96263 279.55
3.96209 281.086
3.96003 284.146
3.96248 282.7
3.96476 281.419
3.96763 279.553
3.97712 271.054
3.98558 263.599
3.99171 258.471
3.99644 254.743
3.99958 252.601
4.00171 251.474
4.00425 249.93
4.00334 251.844
4.00259 253.591
4.00446 252.719
4.01121 246.973
4.01307 246.109
4.01102 249.161
4.01215 249.028
4.01049 251.686
4.00949 253.689
4.01426 249.921
4.01647 248.709
4.02387 242.31
4.02649 240.69
4.02241 245.773
4.02254 246.634
4.02253 247.645
4.02184 249.335
4.02075 251.427
4.01932 253.859
4.01666 257.517
4.01326 261.915
4.01396 262.219
4.01544 261.742
4.01498 263.197
4.02207 257.108
4.0294 250.781
4.02957 251.609
4.03071 251.472
4.0233 259.876
4.02326 260.916
4.03009 255.093
4.03245 253.725
4.03295 254.232
4.03547 252.713
4.03379 255.387
4.03405 256.129
4.03626 254.917
4.03376 258.418
4.03355 259.628
4.03312 261.055
4.03495 260.232
4.03493 261.248
4.03778 259.397
4.04095 257.228
4.03675 262.426
4.0369 263.276
4.03737 263.813
4.04241 259.77
4.04021 262.971
4.03862 265.561
4.03742 267.759
4.04344 262.742
4.05419 252.988
4.05567 252.511
4.05924 249.934
4.06912 241.057
4.07492 236.257
4.07482 237.36
4.07628 236.9
4.08154 232.64
4.08407 231.111
4.08483 231.353
4.08758 229.603
4.08903 229.153
4.09219 226.99
4.09503 225.15
4.09774 223.435
4.09699 225.192
4.09712 226.06
4.10513 219.045
4.11411 211.073
4.12135 204.828
4.12465 202.529
4.12453 203.647
4.12272 206.459
4.12276 207.419
4.1248 206.376
4.12689 205.292
4.12901 204.168
4.12367 210.513
4.11988 215.303
4.12296 213.218
4.12739 209.785
4.13054 207.64
4.13179 207.394
4.13633 203.844
4.14382 197.362
4.14791 194.273
4.14805 195.131
4.1581 186.077
4.16611 179.067
4.1683 177.874
4.16074 186.441
4.15114 197.037
4.14821 200.97
4.14757 202.611
4.15265 198.529
4.16048 191.7
4.16581 187.365
4.16895 185.225
4.17229 182.884
4.17566 180.516
4.17456 182.616
4.17082 187.354
4.16926 189.919
4.17036 189.816
4.17296 188.214
4.1771 185.079
4.18316 180.016
4.18812 176.057
4.19015 175.026
4.19209 174.09
4.19893 168.251
4.20459 163.591
4.20293 166.247
4.20285 167.325
4.20193 169.244
4.19661 175.569
4.1939 179.278
4.19653 177.647
4.1972 177.979
4.20362 172.564
4.21321 163.964
4.22274 155.442
4.22349 155.693
4.22567 154.514
4.22572 155.457
4.22786 154.314
4.23256 150.615
4.23424 149.943
4.23645 148.727
4.23264 153.534
4.23276 154.421
4.23789 150.291
4.2378 151.375
4.23694 153.242
4.23706 154.116
4.23196 160.215
4.2302 162.979
4.23375 160.431
4.23719 157.991
4.23674 159.442
4.2367 160.483
4.23642 161.76
4.23628 162.895
4.2336 166.577
4.23344 167.744
4.23395 168.233
4.23314 170.041
4.23108 173.1
4.23042 174.759
4.23475 171.428
4.23735 169.828
4.23531 172.866
4.2273 181.875
4.22264 187.534
4.2242 186.983
4.22654 185.634
4.2282 184.979
4.23043 183.75
4.23337 181.812
4.23624 179.936
4.24039 176.785
4.24245 175.726
4.24205 177.132
4.2368 183.382
4.23666 184.516
4.23881 183.373
4.24271 180.471
4.24128 182.899
4.23789 187.285
4.23564 190.538
4.23311 194.067
4.22937 198.81
4.23183 197.348
4.23953 190.649
4.23807 193.109
4.23418 198
4.23164 201.538
4.22716 207.022
4.22607 209.113
4.22636 209.823
4.22829 208.892
4.23357 204.606
4.23099 208.192
4.22737 212.81
4.22757 213.605
4.22229 219.887
4.22127 221.908
4.22092 223.256
4.22725 217.926
4.22954 216.643
4.23067 216.513
4.22725 220.933
4.22412 225.055
4.23115 219.024
4.23023 220.946
4.228 224.18
4.23034 222.839
4.23169 222.492
4.2313 223.879
4.23183 224.347
4.23337 223.813
4.23338 224.799
4.23648 222.698
4.24079 219.385
4.24721 213.966
4.25085 211.333
4.25008 213.099
4.25375 210.432
4.25714 208.039
4.25935 206.83
4.26213 205.047
4.26466 203.52
4.26913 200.053
4.2751 195.075
4.27954 191.638
4.27898 193.202
4.27745 195.733
4.27956 194.617
4.27801 197.172
4.27707 199.108
4.28266 194.516
4.28739 190.792
4.28602 193.158
4.2863 193.883
4.29263 188.548
4.29812 184.059
4.30031 182.869
4.29936 184.816
4.29028 194.9
4.28097 205.205
4.28292 204.259
4.2852 202.983
4.29043 198.751
4.29532 194.86
4.29266 198.514
4.29247 199.714
4.2986 194.58
4.30381 190.365
4.30516 190.016
4.30451 191.664
4.30049 196.692
4.29624 201.935
4.29396 205.219
4.30332 196.854
4.31117 190.008
4.31391 188.264
4.3179 185.284
4.31856 185.62
4.31014 195.042
4.30546 200.722
4.30409 203.085
4.30264 205.535
4.30839 200.785
4.31424 195.936
4.31382 197.359
4.31335 198.827
4.30995 203.227
4.31168 202.498
4.32118 193.996
4.32679 189.385
4.3226 194.581
4.3239 194.282
4.32405 195.128
4.32538 194.801
4.32257 198.609
4.32149 200.689
4.32207 201.114
4.32938 194.795
4.33326 191.916
4.33151 194.671
4.33306 194.117
4.33548 192.699
4.34243 186.747
4.34896 181.22
4.35756 173.619
4.36672 165.457
4.37768 155.504
4.37925 154.926
4.375 160.18
4.37265 163.53
4.37097 166.204
4.36598 172.195
4.36338 175.802
4.35991 180.266
4.35435 186.834
4.34849 193.686
4.35367 189.509
4.35914 185.042
4.36072 184.457
4.3647 181.476
4.36444 182.741
4.36385 184.329
4.36588 183.296
4.37328 176.902
4.3844 166.779
4.39649 155.69
4.40449 148.685
4.40567 148.508
4.40308 152.101
4.39487 161.304
4.39425 162.93
4.39645 161.728
4.39959 159.587
4.40257 157.607
4.40631 154.873
4.40589 156.289
4.40228 160.901
4.39809 166.089
4.39472 170.454
4.4003 165.883
4.4033 163.88
4.4006 167.584
4.39613 173.053
4.39572 174.458
4.39453 176.651
4.38981 182.371
4.38717 186.006
4.38826 185.915
4.38586 189.32
4.38899 187.185
4.3902 186.983
4.39128 186.899
4.3896 189.581
4.38675 193.432
4.38396 197.217
4.38289 199.284
4.38984 193.341
4.39656 187.618
4.40196 183.221
4.39925 186.929
4.39427 192.911
4.39013 198.053
4.39357 195.607
4.39776 192.417
4.39044 200.739
4.38132 210.861
4.37391 219.268
4.36843 225.75
4.36826 226.923
4.36617 230.006
4.36799 229.185
4.37185 226.333
4.37103 228.148
4.37505 225.132
4.37919 221.993
4.37928 222.898
4.37174 231.439
4.3651 239.083
4.37177 233.411
4.37353 232.652
4.37141 235.77
4.37464 233.54
4.38307 226.113
4.39027 219.914
4.38938 221.799
4.38561 226.573
4.38508 228.097
4.38195 232.227
4.37919 235.989
4.38058 235.599
4.38134 235.836
4.392 226.177
4.40299 216.188
4.41603 204.15
4.42411 197.067
4.42625 195.927
4.4265 196.683
4.42658 197.599
4.42971 195.473
4.4297 196.483
4.42904 198.142
4.43741 190.774
4.44034 188.841
4.44189 188.292
4.43913 192.05
4.44015 192.03
4.43867 194.511
4.4426 191.577
4.44382 191.363
4.44378 192.403
4.44246 194.723
4.43957 198.607
4.44061 198.57
4.44749 192.684
4.44521 195.971
4.43831 203.865
4.43762 205.558
4.44286 201.321
4.4417 203.476
4.44619 199.989
4.4504 196.774
4.45169 196.49
4.45008 199.099
4.44647 203.706
4.44875 202.434
4.45136 200.819
4.45547 197.708
4.45401 200.168
4.44974 205.444
4.44222 213.96
4.44398 213.201
4.45738 200.803
4.47201 187.165
4.48098 179.2
4.48517 176.008
4.48428 177.896
4.48517 178.014
4.48516 179.02
4.48699 178.191
4.49466 171.517
4.50176 165.417
4.50756 160.62
4.51578 153.397
4.51925 150.932
4.51854 152.639
4.52161 150.572
4.51646 156.722
4.51365 160.533
4.52181 153.368
4.52296 153.217
4.52398 153.202
4.53173 146.452
4.54304 136.135
4.55148 128.699
4.55429 126.887
4.55782 124.356
4.56725 115.924
4.5734 110.781
4.57817 107.009
4.5823 103.883
4.58334 103.843
4.58667 101.506
4.59356 95.6181
4.59363 96.5471
4.58927 101.909
4.58234 109.836
4.57876 114.423
4.57119 122.992
4.563 132.182
4.55869 137.489
4.56384 133.339
4.56692 131.255
4.56472 134.454
4.56947 130.705
4.56863 132.551
4.55798 144.197
4.55868 144.498
4.56391 140.266
4.56821 136.966
4.57201 134.165
4.5654 141.781
4.56212 146.058
4.56074 148.441
4.56461 145.568
4.56808 143.102
4.56557 146.614
4.56274 150.44
4.5665 147.682
4.57094 144.243
4.57145 144.728
4.57427 142.908
4.57806 140.12
4.58485 134.325
4.59513 125.044
4.606 115.178
4.61198 110.195
4.60923 113.95
4.60098 123.201
4.595 130.176
4.59011 136.067
4.59154 135.643
4.59073 137.449
4.58616 143.016
4.58622 143.959
4.59517 136.005
4.59828 133.904
4.60426 128.915
4.61482 119.36
4.61619 118.99
4.61579 120.391
4.61739 119.792
4.62384 114.335
4.62451 114.669
4.62407 116.109
4.62455 116.63
4.62103 121.149
4.62038 122.8
4.62285 121.33
4.62438 120.799
4.62786 118.315
4.62686 120.323
4.62598 122.204
4.6293 119.879
4.6364 113.784
4.63242 118.761
4.62729 124.884
4.6242 128.975
4.62247 131.709
4.61805 137.132
4.61059 145.587
4.60751 149.671
4.61021 147.973
4.61142 147.763
4.6203 139.875
4.62241 138.764
4.62306 139.117
4.62418 138.994
4.62736 136.816
4.63345 131.729
4.63785 128.332
4.63372 133.46
4.62922 138.955
4.62434 144.841
4.62265 147.527
4.62183 149.344
4.62596 146.221
4.63004 143.143
4.62098 153.194
4.62432 150.861
4.63166 144.514
4.63341 143.77
4.63487 143.312
4.63535 143.824
4.62728 152.9
4.61568 165.504
4.60862 173.561
4.60529 177.889
4.61478 169.394
4.62441 160.772
4.63058 155.603
4.63341 153.769
4.63379 154.388
4.62917 160.009
4.62581 164.365
4.62696 164.217
4.63094 161.234
4.63226 160.921
4.62447 169.712
4.62394 171.238
4.629 167.176
4.63162 165.557
4.6251 173.08
4.62445 174.729
4.62217 178.013
4.61476 186.416
4.60945 192.731
4.61039 192.792
4.61748 186.696
4.62233 182.844
4.62174 184.441
4.61953 187.651
4.61357 194.613
4.60509 204.084
4.59945 210.725
4.59035 220.826
4.59303 219.148
4.59661 216.565
4.59458 219.599
4.59842 216.759
4.59446 221.718
4.58805 229.132
4.58365 234.528
4.5847 234.482
4.58772 232.46
4.59038 230.804
4.59218 230.001
4.59999 223.184
4.59993 224.25
4.60327 221.91
4.60952 216.659
4.61416 213.016
4.61943 208.748
4.62526 203.917
4.63159 198.589
4.6355 195.675
4.64228 189.903
4.64471 188.474
4.63698 197.196
4.63215 203.025
4.63105 205.131
4.62783 209.348
4.63112 207.057
4.63262 206.554
4.62974 210.442
4.63502 206.158
4.64124 200.944
4.64102 202.159
4.64223 201.948
4.64884 196.337
4.6518 194.379
4.65271 194.469
4.65549 192.688
4.66039 188.785
4.66697 183.211
4.67504 176.137
4.68233 169.846
4.68685 166.33
4.69354 160.635
4.70639 148.785
4.71021 145.965
4.70449 152.687
4.69997 158.208
4.70076 158.415
4.69666 163.521
4.69265 168.526
4.69306 169.119
4.68964 173.536
4.69221 171.973
4.69296 172.217
4.68828 177.895
4.68145 185.726
4.67879 189.393
4.68112 188.061
4.68055 189.631
4.68637 184.807
4.69016 182.02
4.69489 178.292
4.69225 181.93
4.69335 181.829
4.69472 181.456
4.69551 181.671
4.69441 183.767
4.69264 186.537
4.69606 184.12
4.70144 179.738
4.70787 174.307
4.70866 174.521
4.71241 171.767
4.71918 165.997
4.7285 157.683
4.74249 144.691
4.75025 137.931
4.75586 133.321
4.76455 125.63
4.77323 117.944
4.77609 116.091
4.77233 120.848
4.77204 122.136
4.76624 128.935
4.75668 139.495
4.7483 148.876
4.74564 152.542
4.75217 147.012
4.75694 143.235
4.76343 137.747
4.7659 136.284
4.77142 131.754
4.77349 130.687
4.77617 129.007
4.78368 122.5
4.78661 120.574
4.78763 120.553
4.78983 119.353
4.79118 118.999
4.78638 124.798
4.78643 125.75
4.79527 117.905
4.79427 119.906
4.8009 114.28
4.81081 105.368
4.81389 103.292
4.82371 94.4699
4.82824 90.9363
4.82704 93.1417
4.82917 92.0113
4.82434 97.838
4.82762 95.5557
4.82973 94.4508
4.83053 94.653
4.83735 88.8261
4.84099 86.1843
4.83938 88.7969
4.84338 85.8004
4.85019 79.9869
4.85158 79.5993
4.85503 77.1449
4.85114 82.0407
4.84103 93.1478
4.83927 95.91
4.83622 99.9573
4.82796 109.222
4.82134 116.835
4.82895 110.231
4.83605 104.132
4.83506 106.115
4.82926 112.915
4.82262 120.554
4.82155 122.626
4.81945 125.726
4.81992 126.26
4.82306 124.124
4.83459 113.592
4.83815 111.026
4.83556 114.621
4.83298 118.203
4.8349 117.274
4.83556 117.615
4.83537 118.812
4.83593 119.249
4.83346 122.723
4.8257 131.48
4.82036 137.817
4.82085 138.332
4.81616 144.019
4.81707 144.106
4.81631 145.865
4.81369 149.488
4.81305 151.128
4.8126 152.58
4.81285 153.325
4.82138 145.802
4.8259 142.282
4.83317 136.012
4.83888 131.302
4.84122 129.961
4.84004 132.134
4.83939 133.787
4.8365 137.682
4.83403 141.153
4.83646 139.722
4.8498 127.382
4.85855 119.631
4.86878 110.395
4.879 101.183
4.88213 99.0479
4.87377 108.412
4.8726 110.578
4.87844 105.736
4.88076 104.416
4.87983 106.35
4.87681 110.373
4.87244 115.74
4.87537 113.809
4.88688 103.302
4.89028 100.897
4.89062 101.56
4.89751 95.6704
4.89769 96.4883
4.89718 97.9946
4.90301 93.1711
4.9077 89.4793
4.90725 90.9304
4.90848 90.6969
4.90378 96.4
4.90358 97.5951
4.90799 94.1851
4.90903 94.1454
4.91184 92.3398
4.9115 93.681
4.90926 96.9164
4.90535 101.828
4.90381 104.365
4.90792 101.258
4.90968 100.496
4.90845 102.725
4.91123 100.951
4.91085 102.334
4.91044 103.741
4.9093 105.881
4.90507 111.112
4.90205 115.128
4.90941 108.769
4.91166 107.522
4.91265 107.53
4.91091 110.267
4.91025 111.93
4.91723 105.951
4.91504 109.139
4.91245 112.726
4.90975 116.426
4.90547 121.712
4.90441 123.772
4.91413 115.053
4.92439 105.784
4.93513 96.0539
4.938 94.1801
4.94248 90.7014
4.94639 87.7904
4.94574 89.4365
4.93897 97.2093
4.93131 105.871
4.92883 109.344
4.92644 112.738
4.92885 111.333
4.93599 105.19
4.94087 101.313
4.94214 101.04
4.93883 105.349
4.93893 106.248
4.94443 101.745
4.95395 93.2244
4.9657 82.4781
4.97353 75.652
4.98165 68.5331
4.98185 69.3304
4.98243 69.7502
4.98197 71.2065
4.9812 72.974
4.98377 71.4098
4.98351 72.6698
4.98666 70.5152
4.98661 71.5709
4.98687 72.3112
4.98638 73.7955
4.98538 75.8017
4.98038 81.8011
4.97847 84.7108
4.97971 84.465
4.97959 85.5905
4.97522 90.9605
4.97149 95.6935
4.97124 96.9382
4.97431 94.8698
4.97886 91.3194
4.98696 84.2172
4.99487 77.3047
4.99737 75.813
4.99968 74.5022
5.00029 74.8849
5.0042 71.9811
5.00701 70.1717
5.00533 72.8524
5.01257 66.6112
5.01506 65.1224
5.01499 66.1881
5.01454 67.6388
5.01845 64.731
5.03005 54.1273
5.04006 45.1225
5.04469 41.4865
5.04755 39.6262
5.04451 43.6699
5.04073 48.4506
5.04407 46.1084
5.04716 44.0197
5.04346 48.7146
5.0424 50.7834
5.04981 44.3661
5.05971 35.4641
5.07174 24.4392
5.07757 19.6063
5.08175 16.4284
5.08109 18.0896
5.07966 20.5183
5.08534 15.837
5.087 15.1811
5.09097 12.2053
5.08689 17.2861
5.08662 18.5636
5.09396 12.217
5.10608 1.10291
5.11338 -5.20314
5.11826 -9.07777
5.11721 -7.02769
5.11488 -3.69818
5.11345 -1.27455
5.11515 -1.96753
5.1157 -1.51742
5.11427 0.907071
5.11291 3.27258
5.11322 3.96257
5.11372 4.45752
5.10938 9.80152
5.10851 11.6692
5.10665 14.5271
5.10078 21.3954
5.09964 23.537
5.09966 24.5195
5.09799 27.1891
5.10242 23.7566
5.09446 32.7224
5.09135 36.8274
5.09621 32.9647
5.09788 32.2963
5.08869 42.4936
5.07966 52.5232
5.07568 57.494
5.07073 63.4534
5.06819 66.9873
5.06601 70.1668
5.07084 66.3411
5.07393 64.2522
5.06963 69.5511
5.06472 75.4615
5.06165 79.5302
5.0612 80.9747
5.06097 82.204
5.06339 80.7898
5.0654 79.782
5.06191 84.2654
5.05795 89.2319
5.06064 87.5366
5.06472 84.463
5.06879 81.3903
5.0694 81.7819
5.07491 77.2669
5.08128 71.9016
5.08762 66.5621
5.088 67.1766
5.09027 65.9055
5.0951 62.0756
5.09217 66.0101
5.09281 66.3658
5.0928 67.3824
5.09519 65.9896
5.0975 64.6786
5.09966 63.5193
5.09883 65.3467
5.09632 68.8556
5.09631 69.8722
5.10454 62.6422
5.10714 61.0357
5.10439 64.7847
5.09641 73.7687
5.09279 78.3897
5.09388 78.3002
5.0928 80.377
5.0985 75.675
5.10654 68.6379
5.10141 74.7711
5.09802 79.1607
5.10592 72.2606
5.1069 72.2761
5.10538 74.7946
5.11 71.1825
5.11266 69.5201
5.12064 62.5398
5.13443 49.7461
5.14462 40.5604
5.15662 29.5548
5.15668 30.4942
5.15324 34.9344
5.14587 43.3065
5.13468 55.4972
5.13571 55.4658
5.13717 55.013
5.1435 49.6742
5.14379 50.3935
5.1406 54.5814
5.13592 60.263
5.13397 63.2045
5.13024 67.9371
5.1248 74.3799
5.11881 81.3729
5.11653 84.6482
5.11151 90.6686
5.1055 97.6829
5.10613 98.051
5.11539 89.7881
5.1213 84.8757
5.12812 79.0605
5.13172 76.457
5.13245 76.7248
5.12622 83.9551
5.12111 90.0643
5.12691 85.2727
5.12869 84.4905
5.12876 85.4146
5.12982 85.3626
5.13049 85.6899
5.13492 82.2593
5.13703 81.1502
5.1405 78.6739
5.14223 77.9479
5.14641 74.7682
5.14438 77.8017
5.14622 76.9557
5.15364 70.5359
5.15629 68.8882
5.16241 63.7652
5.17039 56.792
5.17508 53.1023
5.1785 50.6831
5.18027 49.9079
5.18348 47.7004
5.179 53.1755
5.18168 51.5037
5.1902 43.9813
5.1969 38.2772
5.19654 39.6364
5.19372 43.4577
5.19101 47.1718
5.1875 51.6786
5.18471 55.4689
5.17859 62.5937
5.1721 70.0772
5.17313 70.0539
5.17896 65.2188
5.18675 58.4277
5.19057 55.6126
5.18798 59.1962
5.17672 71.4554
5.16606 83.1234
5.16096 89.2151
5.15714 94.0434
5.15046 101.723
5.14866 104.52
5.15113 103.046
5.15455 100.629
5.15264 103.542
5.15088 106.304
5.15339 104.785
5.15398 105.201
5.15569 104.492
5.15761 103.565
5.15987 102.312
5.16224 100.94
5.16571 98.4737
5.16254 102.643
5.16042 105.759
5.16175 105.431
5.15318 115.002
5.15052 118.658
5.15388 116.294
5.16254 108.64
5.16203 110.152
5.16139 111.788
5.16522 108.955
5.16673 108.445
5.16686 109.317
5.16921 107.968
5.17316 105.023
5.17332 105.859
5.17198 108.198
5.17585 105.324
5.18152 100.656
5.19134 91.8436
5.19792 86.2606
5.21094 74.2364
5.21747 68.7122
5.22394 63.2407
5.22513 63.0531
5.22514 64.0417
5.22399 66.1893
5.22547 65.7053
5.23193 60.2509
5.2406 52.5783
5.24696 47.2232
5.24809 47.0934
5.24574 50.4437
5.24799 49.1878
5.24251 55.6701
5.23666 62.52
5.23413 66.0447
5.23199 69.1923
5.22967 72.5133
5.2331 70.0822
5.23923 64.9525
5.24362 61.5626
5.25304 53.1414
5.26492 42.257
5.26455 43.6247
5.25742 51.7637
5.25936 50.8174
5.26593 45.2525
5.27613 36.051
5.28635 26.831
5.28998 24.1951
5.29228 22.8966
5.29895 17.2271
5.30696 10.2236
5.30811 10.0681
5.30807 11.1059
5.3091 11.0804
5.30898 12.1944
5.30608 16.1026
5.30253 20.6459
5.30153 22.6526
5.30308 22.1031
5.30208 24.1031
5.30991 17.2641
5.31198 16.1992
5.31148 17.7037
5.31092 19.26
5.30718 24.0027
5.30099 31.1876
5.29994 33.241
5.29877 35.4089
5.2944 40.7756
5.28839 47.7855
5.28299 54.1908
5.2805 57.6815
5.27791 61.2661
5.27624 63.9396
5.27374 67.4436
5.26838 73.7954
5.27085 72.3302
5.27711 67.0713
5.28102 64.1561
5.28024 65.9367
5.28088 66.3002
5.28244 65.7363
5.2878 61.3835
5.29245 57.7324
5.28898 62.1949
5.28503 67.1485
5.28792 65.2625
5.29165 62.526
5.29553 59.6499
5.29987 56.3048
5.29715 60.0241
5.30081 57.3663
5.30621 52.9703
5.30672 53.4566
5.301 60.1807
5.30052 61.6635
5.29896 64.2156
5.29564 68.5387
5.29578 69.3984
5.29504 71.141
5.29745 69.7305
5.2961 72.0792
5.29591 73.272
5.29851 71.6664
5.30086 70.3145
5.30633 65.8491
5.30789 65.2892
5.3089 65.2789
5.30959 65.5911
5.30601 70.1659
5.29875 78.4252
5.30031 77.8669
5.30481 74.3704
5.31262 67.5613
5.31753 63.6494
5.31844 63.7369
5.31728 65.8973
5.32235 61.8339
5.32254 62.6355
5.31779 68.3844
5.31651 70.6729
5.32273 65.4442
5.32641 62.771
5.3258 64.3741
5.32407 67.1041
5.32533 66.8498
5.32846 64.714
5.33434 59.8438
5.33225 62.9264
5.32557 70.6067
5.31632 80.8585
5.30987 88.3089
5.3056 93.5839
5.29871 101.465
5.2905 110.674
5.28909 113.093
5.29858 104.596
5.30558 98.5963
5.31556 89.6154
5.32907 77.1041
5.32871 78.4643
5.32192 86.2602
5.31794 91.2422
5.31221 97.9703
5.31413 97.0461
5.31612 96.0624
5.32073 92.4522
5.32409 90.0855
5.32299 92.1906
5.32174 94.436
5.31865 98.5268
5.30751 110.666
5.30031 118.873
5.29958 120.6
5.2964 124.78
5.2989 123.276
5.30192 121.256
5.3032 120.981
5.30196 123.216
5.30011 126.065
5.29652 130.658
5.2983 129.877
5.29641 132.769
5.2881 142.075
5.28618 145
5.2917 140.483
5.30087 132.306
5.30739 126.787
5.31592 119.258
5.32407 112.111
5.33358 103.597
5.33556 102.616
5.33637 102.806
5.33586 104.316
5.33878 102.399
5.34549 96.6912
5.35024 92.94
5.35506 89.1186
5.35798 87.2015
5.36056 85.6167
5.36839 78.7847
5.37379 74.3923
5.37589 73.293
5.38206 68.1165
5.38897 62.2133
5.39181 60.3718
5.39264 60.538
5.39704 57.139
5.4043 50.8758
5.41002 46.1611
5.41175 45.4267
5.41426 43.9224
5.41712 42.0554
5.41736 42.8164
5.4137 47.4816
5.41344 48.743
5.41127 51.9073
5.40946 54.7231
5.40816 57.0218
5.40725 58.9285
5.40725 59.9307
5.40721 60.9644
5.40305 66.1283
5.39954 70.6417
5.40009 71.0853
5.40456 67.6215
5.40269 70.4856
5.39915 75.0242
5.39509 80.0885
5.39355 82.625
5.39138 85.8006
5.39011 88.0681
5.39268 86.4943
5.39107 89.1075
5.39191 89.2643
5.39631 85.872
5.39931 83.8731
5.40367 80.5109
5.41008 75.1028
5.41106 75.118
5.39985 87.3255
5.39406 94.1165
5.39208 97.1002
5.39524 94.9439
5.40094 90.2363
5.40414 88.0387
5.40572 87.4621
5.40827 85.9095
5.41042 84.7635
5.41367 82.5092
5.40593 91.2477
5.39928 98.899
5.39319 105.985
5.39594 104.235
5.40265 98.5256
5.40616 96.0236
5.39563 107.552
&
